
Alt(km)          T(K)    P(pa)   Density Speed   Viscosity
                                  kg/m3  (m/s)    Pa.s

0.00000	        288.150	101325	1.22500	340.294	0.0000181206
0.0100000	288.085	101205	1.22382	340.256	0.0000181173
0.0200000	288.020	101085	1.22265	340.217	0.0000181141
0.0300000	287.955	100965	1.22148	340.179	0.0000181108
0.0400000	287.890	100845	1.22030	340.141	0.0000181076
0.0500000	287.825	100726	1.21913	340.102	0.0000181043
0.0600000	287.760	100606	1.21796	340.064	0.0000181011
0.0700000	287.695	100487	1.21679	340.025	0.0000180978
0.0800000	287.630	100368	1.21562	339.987	0.0000180946
0.0900000	287.565	100248	1.21445	339.948	0.0000180913
0.100000	287.500	100129	1.21328	339.910	0.0000180881
0.110000	287.435	100011	1.21212	339.872	0.0000180848
0.120000	287.370	99891.7	1.21095	339.833	0.0000180816
0.130000	287.305	99773.0	1.20978	339.795	0.0000180783
0.140000	287.240	99654.4	1.20862	339.756	0.0000180751
0.150000	287.175	99536.0	1.20746	339.718	0.0000180718
0.160000	287.110	99417.6	1.20629	339.679	0.0000180686
0.170000	287.045	99299.4	1.20513	339.641	0.0000180653
0.180000	286.980	99181.2	1.20397	339.602	0.0000180621
0.190000	286.915	99063.2	1.20281	339.564	0.0000180588
0.200000	286.850	98945.3	1.20165	339.526	0.0000180556
0.210000	286.785	98827.5	1.20049	339.487	0.0000180523
0.220000	286.720	98709.9	1.19934	339.449	0.0000180491
0.230000	286.655	98592.3	1.19818	339.410	0.0000180458
0.240000	286.590	98474.9	1.19702	339.372	0.0000180426
0.250000	286.525	98357.5	1.19587	339.333	0.0000180393
0.260000	286.460	98240.3	1.19471	339.295	0.0000180361
0.270000	286.395	98123.2	1.19356	339.256	0.0000180328
0.280000	286.330	98006.2	1.19241	339.218	0.0000180296
0.290000	286.265	97889.3	1.19126	339.179	0.0000180263
0.300000	286.200	97772.6	1.19011	339.141	0.0000180230
0.310000	286.135	97655.9	1.18896	339.102	0.0000180198
0.320000	286.070	97539.4	1.18781	339.064	0.0000180165
0.330000	286.005	97423.0	1.18666	339.025	0.0000180133
0.340000	285.940	97306.6	1.18551	338.987	0.0000180100
0.350000	285.875	97190.4	1.18436	338.948	0.0000180068
0.360000	285.810	97074.3	1.18322	338.910	0.0000180035
0.370000	285.745	96958.4	1.18207	338.871	0.0000180002
0.380000	285.680	96842.5	1.18093	338.832	0.0000179970
0.390000	285.615	96726.8	1.17979	338.794	0.0000179937
0.400000	285.550	96611.1	1.17864	338.755	0.0000179905
0.410000	285.485	96495.6	1.17750	338.717	0.0000179872
0.420000	285.420	96380.2	1.17636	338.678	0.0000179839
0.430000	285.355	96264.9	1.17522	338.640	0.0000179807
0.440000	285.290	96149.7	1.17408	338.601	0.0000179774
0.450000	285.225	96034.6	1.17295	338.563	0.0000179742
0.460000	285.160	95919.6	1.17181	338.524	0.0000179709
0.470000	285.095	95804.7	1.17067	338.485	0.0000179676
0.480000	285.030	95690.0	1.16954	338.447	0.0000179644
0.490000	284.965	95575.4	1.16840	338.408	0.0000179611
0.500000	284.900	95460.8	1.16727	338.370	0.0000179579
0.510000	284.835	95346.4	1.16614	338.331	0.0000179546
0.520000	284.770	95232.1	1.16500	338.292	0.0000179513
0.530000	284.705	95117.9	1.16387	338.254	0.0000179481
0.540000	284.640	95003.8	1.16274	338.215	0.0000179448
0.550000	284.575	94889.9	1.16161	338.177	0.0000179415
0.560000	284.510	94776.0	1.16048	338.138	0.0000179383
0.570000	284.445	94662.3	1.15936	338.099	0.0000179350
0.580000	284.380	94548.6	1.15823	338.061	0.0000179317
0.590000	284.315	94435.1	1.15710	338.022	0.0000179285
0.600000	284.250	94321.7	1.15598	337.983	0.0000179252
0.610000	284.185	94208.4	1.15485	337.945	0.0000179219
0.620000	284.120	94095.2	1.15373	337.906	0.0000179187
0.630000	284.055	93982.1	1.15261	337.867	0.0000179154
0.640000	283.990	93869.1	1.15148	337.829	0.0000179121
0.650000	283.925	93756.2	1.15036	337.790	0.0000179089
0.660000	283.860	93643.5	1.14924	337.751	0.0000179056
0.670000	283.795	93530.8	1.14812	337.713	0.0000179023
0.680000	283.730	93418.3	1.14700	337.674	0.0000178991
0.690000	283.665	93305.9	1.14589	337.635	0.0000178958
0.700000	283.600	93193.6	1.14477	337.597	0.0000178925
0.710000	283.535	93081.4	1.14365	337.558	0.0000178893
0.720000	283.470	92969.3	1.14254	337.519	0.0000178860
0.730000	283.405	92857.3	1.14142	337.481	0.0000178827
0.740000	283.340	92745.4	1.14031	337.442	0.0000178795
0.750000	283.275	92633.6	1.13920	337.403	0.0000178762
0.760000	283.210	92521.9	1.13808	337.364	0.0000178729
0.770000	283.145	92410.4	1.13697	337.326	0.0000178696
0.780000	283.080	92299.0	1.13586	337.287	0.0000178664
0.790000	283.015	92187.6	1.13475	337.248	0.0000178631
0.800000	282.950	92076.4	1.13364	337.210	0.0000178598
0.810000	282.885	91965.3	1.13254	337.171	0.0000178565
0.820000	282.820	91854.3	1.13143	337.132	0.0000178533
0.830000	282.755	91743.4	1.13032	337.093	0.0000178500
0.840000	282.690	91632.6	1.12922	337.055	0.0000178467
0.850000	282.625	91521.9	1.12811	337.016	0.0000178434
0.860000	282.560	91411.3	1.12701	336.977	0.0000178402
0.870000	282.495	91300.8	1.12591	336.938	0.0000178369
0.880000	282.430	91190.5	1.12480	336.900	0.0000178336
0.890000	282.365	91080.2	1.12370	336.861	0.0000178303
0.900000	282.300	90970.1	1.12260	336.822	0.0000178271
0.910000	282.235	90860.1	1.12150	336.783	0.0000178238
0.920000	282.170	90750.1	1.12040	336.744	0.0000178205
0.930000	282.105	90640.3	1.11931	336.706	0.0000178172
0.940000	282.040	90530.6	1.11821	336.667	0.0000178140
0.950000	281.975	90421.0	1.11711	336.628	0.0000178107
0.960000	281.910	90311.5	1.11602	336.589	0.0000178074
0.970000	281.845	90202.1	1.11492	336.550	0.0000178041
0.980000	281.780	90092.8	1.11383	336.512	0.0000178008
0.990000	281.715	89983.6	1.11273	336.473	0.0000177976
1.00000	        281.650	89874.6	1.11164	336.434	0.0000177943
1.01000	281.585	89765.6	1.11055	336.395	0.0000177910
1.02000	281.520	89656.8	1.10946	336.356	0.0000177877
1.03000	281.455	89548.0	1.10837	336.318	0.0000177844
1.04000	281.390	89439.4	1.10728	336.279	0.0000177812
1.05000	281.325	89330.8	1.10619	336.240	0.0000177779
1.06000	281.260	89222.4	1.10511	336.201	0.0000177746
1.07000	281.195	89114.1	1.10402	336.162	0.0000177713
1.08000	281.130	89005.9	1.10293	336.123	0.0000177680
1.09000	281.065	88897.8	1.10185	336.084	0.0000177647
1.10000	281.000	88789.8	1.10077	336.046	0.0000177615
1.11000	280.935	88681.9	1.09968	336.007	0.0000177582
1.12000	280.870	88574.1	1.09860	335.968	0.0000177549
1.13000	280.805	88466.4	1.09752	335.929	0.0000177516
1.14000	280.740	88358.8	1.09644	335.890	0.0000177483
1.15000	280.675	88251.3	1.09536	335.851	0.0000177450
1.16000	280.610	88144.0	1.09428	335.812	0.0000177418
1.17000	280.545	88036.7	1.09320	335.773	0.0000177385
1.18000	280.480	87929.6	1.09212	335.735	0.0000177352
1.19000	280.415	87822.5	1.09105	335.696	0.0000177319
1.20000	280.350	87715.6	1.08997	335.657	0.0000177286
1.21000	280.285	87608.7	1.08889	335.618	0.0000177253
1.22000	280.220	87502.0	1.08782	335.579	0.0000177220
1.23000	280.155	87395.4	1.08675	335.540	0.0000177187
1.24000	280.090	87288.9	1.08567	335.501	0.0000177155
1.25000	280.025	87182.5	1.08460	335.462	0.0000177122
1.26000	279.960	87076.1	1.08353	335.423	0.0000177089
1.27000	279.895	86969.9	1.08246	335.384	0.0000177056
1.28000	279.830	86863.8	1.08139	335.345	0.0000177023
1.29000	279.765	86757.8	1.08032	335.306	0.0000176990
1.30000	279.700	86651.9	1.07925	335.267	0.0000176957
1.31000	279.635	86546.2	1.07819	335.228	0.0000176924
1.32000	279.570	86440.5	1.07712	335.189	0.0000176891
1.33000	279.505	86334.9	1.07606	335.150	0.0000176858
1.34000	279.440	86229.4	1.07499	335.112	0.0000176826
1.35000	279.375	86124.1	1.07393	335.073	0.0000176793
1.36000	279.310	86018.8	1.07286	335.034	0.0000176760
1.37000	279.245	85913.6	1.07180	334.995	0.0000176727
1.38000	279.180	85808.6	1.07074	334.956	0.0000176694
1.39000	279.115	85703.6	1.06968	334.917	0.0000176661
1.40000	279.050	85598.8	1.06862	334.878	0.0000176628
1.41000	278.985	85494.0	1.06756	334.839	0.0000176595
1.42000	278.920	85389.4	1.06650	334.800	0.0000176562
1.43000	278.855	85284.9	1.06545	334.761	0.0000176529
1.44000	278.790	85180.4	1.06439	334.722	0.0000176496
1.45000	278.725	85076.1	1.06333	334.683	0.0000176463
1.46000	278.660	84971.9	1.06228	334.643	0.0000176430
1.47000	278.595	84867.8	1.06123	334.604	0.0000176397
1.48000	278.530	84763.7	1.06017	334.565	0.0000176364
1.49000	278.465	84659.8	1.05912	334.526	0.0000176331
1.50000	278.400	84556.0	1.05807	334.487	0.0000176298
1.51000	278.335	84452.3	1.05702	334.448	0.0000176265
1.52000	278.270	84348.7	1.05597	334.409	0.0000176232
1.53000	278.205	84245.2	1.05492	334.370	0.0000176199
1.54000	278.140	84141.8	1.05387	334.331	0.0000176166
1.55000	278.075	84038.5	1.05282	334.292	0.0000176133
1.56000	278.010	83935.3	1.05177	334.253	0.0000176100
1.57000	277.945	83832.2	1.05073	334.214	0.0000176067
1.58000	277.880	83729.2	1.04968	334.175	0.0000176034
1.59000	277.815	83626.3	1.04864	334.136	0.0000176001
1.60000	277.750	83523.5	1.04759	334.097	0.0000175968
1.61000	277.685	83420.9	1.04655	334.058	0.0000175935
1.62000	277.620	83318.3	1.04551	334.018	0.0000175902
1.63000	277.555	83215.8	1.04447	333.979	0.0000175869
1.64000	277.490	83113.4	1.04343	333.940	0.0000175836
1.65000	277.425	83011.1	1.04239	333.901	0.0000175803
1.66000	277.360	82909.0	1.04135	333.862	0.0000175770
1.67000	277.295	82806.9	1.04031	333.823	0.0000175737
1.68000	277.230	82704.9	1.03927	333.784	0.0000175704
1.69000	277.165	82603.1	1.03824	333.745	0.0000175671
1.70000	277.100	82501.3	1.03720	333.705	0.0000175638
1.71000	277.035	82399.6	1.03616	333.666	0.0000175605
1.72000	276.970	82298.1	1.03513	333.627	0.0000175572
1.73000	276.905	82196.6	1.03410	333.588	0.0000175539
1.74000	276.840	82095.3	1.03306	333.549	0.0000175506
1.75000	276.775	81994.0	1.03203	333.510	0.0000175473
1.76000	276.710	81892.8	1.03100	333.471	0.0000175440
1.77000	276.645	81791.8	1.02997	333.431	0.0000175407
1.78000	276.580	81690.8	1.02894	333.392	0.0000175374
1.79000	276.515	81590.0	1.02791	333.353	0.0000175340
1.80000	276.450	81489.2	1.02688	333.314	0.0000175307
1.81000	276.385	81388.6	1.02586	333.275	0.0000175274
1.82000	276.320	81288.0	1.02483	333.235	0.0000175241
1.83000	276.255	81187.6	1.02381	333.196	0.0000175208
1.84000	276.190	81087.2	1.02278	333.157	0.0000175175
1.85000	276.125	80987.0	1.02176	333.118	0.0000175142
1.86000	276.060	80886.8	1.02073	333.079	0.0000175109
1.87000	275.995	80786.8	1.01971	333.039	0.0000175076
1.88000	275.930	80686.8	1.01869	333.000	0.0000175043
1.89000	275.865	80587.0	1.01767	332.961	0.0000175009
1.90000	275.800	80487.2	1.01665	332.922	0.0000174976
1.91000	275.735	80387.6	1.01563	332.883	0.0000174943
1.92000	275.670	80288.0	1.01461	332.843	0.0000174910
1.93000	275.605	80188.6	1.01359	332.804	0.0000174877
1.94000	275.540	80089.2	1.01258	332.765	0.0000174844
1.95000	275.475	79990.0	1.01156	332.726	0.0000174811
1.96000	275.410	79890.8	1.01054	332.686	0.0000174778
1.97000	275.345	79791.8	1.00953	332.647	0.0000174744
1.98000	275.280	79692.8	1.00852	332.608	0.0000174711
1.99000	275.215	79594.0	1.00750	332.569	0.0000174678
2.00000	275.150	79495.2	1.00649	332.529	0.0000174645
2.01000	275.085	79396.6	1.00548	332.490	0.0000174612
2.02000	275.020	79298.0	1.00447	332.451	0.0000174579
2.03000	274.955	79199.6	1.00346	332.411	0.0000174545
2.04000	274.890	79101.2	1.00245	332.372	0.0000174512
2.05000	274.825	79002.9	1.00144	332.333	0.0000174479
2.06000	274.760	78904.8	1.00043	332.293	0.0000174446
2.07000	274.695	78806.7	0.999426	332.254	0.0000174413
2.08000	274.630	78708.8	0.998420	332.215	0.0000174380
2.09000	274.565	78610.9	0.997415	332.176	0.0000174346
2.10000	274.500	78513.1	0.996410	332.136	0.0000174313
2.11000	274.435	78415.5	0.995406	332.097	0.0000174280
2.12000	274.370	78317.9	0.994403	332.058	0.0000174247
2.13000	274.305	78220.4	0.993401	332.018	0.0000174214
2.14000	274.240	78123.1	0.992400	331.979	0.0000174180
2.15000	274.175	78025.8	0.991399	331.940	0.0000174147
2.16000	274.110	77928.6	0.990399	331.900	0.0000174114
2.17000	274.045	77831.5	0.989400	331.861	0.0000174081
2.18000	273.980	77734.6	0.988402	331.821	0.0000174047
2.19000	273.915	77637.7	0.987404	331.782	0.0000174014
2.20000	273.850	77540.9	0.986407	331.743	0.0000173981
2.21000	273.785	77444.2	0.985411	331.703	0.0000173948
2.22000	273.720	77347.6	0.984416	331.664	0.0000173915
2.23000	273.655	77251.1	0.983421	331.625	0.0000173881
2.24000	273.590	77154.7	0.982428	331.585	0.0000173848
2.25000	273.525	77058.5	0.981435	331.546	0.0000173815
2.26000	273.460	76962.3	0.980442	331.506	0.0000173782
2.27000	273.395	76866.2	0.979451	331.467	0.0000173748
2.28000	273.330	76770.2	0.978460	331.428	0.0000173715
2.29000	273.265	76674.3	0.977470	331.388	0.0000173682
2.30000	273.200	76578.4	0.976481	331.349	0.0000173649
2.31000	273.135	76482.7	0.975493	331.309	0.0000173615
2.32000	273.070	76387.1	0.974505	331.270	0.0000173582
2.33000	273.005	76291.6	0.973518	331.231	0.0000173549
2.34000	272.940	76196.2	0.972532	331.191	0.0000173515
2.35000	272.875	76100.9	0.971547	331.152	0.0000173482
2.36000	272.810	76005.6	0.970563	331.112	0.0000173449
2.37000	272.745	75910.5	0.969579	331.073	0.0000173416
2.38000	272.680	75815.5	0.968596	331.033	0.0000173382
2.39000	272.615	75720.5	0.967614	330.994	0.0000173349
2.40000	272.550	75625.7	0.966632	330.954	0.0000173316
2.41000	272.485	75530.9	0.965651	330.915	0.0000173282
2.42000	272.420	75436.3	0.964671	330.875	0.0000173249
2.43000	272.355	75341.7	0.963692	330.836	0.0000173216
2.44000	272.290	75247.3	0.962714	330.797	0.0000173182
2.45000	272.225	75152.9	0.961736	330.757	0.0000173149
2.46000	272.160	75058.6	0.960759	330.718	0.0000173116
2.47000	272.095	74964.5	0.959783	330.678	0.0000173083
2.48000	272.030	74870.4	0.958808	330.639	0.0000173049
2.49000	271.965	74776.4	0.957833	330.599	0.0000173016
2.50000	271.900	74682.5	0.956859	330.560	0.0000172983
2.51000	271.835	74588.7	0.955886	330.520	0.0000172949
2.52000	271.770	74495.1	0.954913	330.480	0.0000172916
2.53000	271.705	74401.5	0.953942	330.441	0.0000172882
2.54000	271.640	74308.0	0.952971	330.401	0.0000172849
2.55000	271.575	74214.5	0.952001	330.362	0.0000172816
2.56000	271.510	74121.2	0.951032	330.322	0.0000172782
2.57000	271.445	74028.0	0.950063	330.283	0.0000172749
2.58000	271.380	73934.9	0.949095	330.243	0.0000172716
2.59000	271.315	73841.9	0.948128	330.204	0.0000172682
2.60000	271.250	73748.9	0.947162	330.164	0.0000172649
2.61000	271.185	73656.1	0.946196	330.125	0.0000172616
2.62000	271.120	73563.4	0.945231	330.085	0.0000172582
2.63000	271.055	73470.7	0.944267	330.045	0.0000172549
2.64000	270.990	73378.2	0.943304	330.006	0.0000172515
2.65000	270.925	73285.7	0.942341	329.966	0.0000172482
2.66000	270.860	73193.3	0.941380	329.927	0.0000172449
2.67000	270.795	73101.1	0.940418	329.887	0.0000172415
2.68000	270.730	73008.9	0.939458	329.848	0.0000172382
2.69000	270.665	72916.8	0.938499	329.808	0.0000172348
2.70000	270.600	72824.8	0.937540	329.768	0.0000172315
2.71000	270.535	72732.9	0.936582	329.729	0.0000172282
2.72000	270.470	72641.1	0.935624	329.689	0.0000172248
2.73000	270.405	72549.4	0.934668	329.650	0.0000172215
2.74000	270.340	72457.8	0.933712	329.610	0.0000172181
2.75000	270.275	72366.3	0.932757	329.570	0.0000172148
2.76000	270.210	72274.9	0.931803	329.531	0.0000172114
2.77000	270.145	72183.5	0.930849	329.491	0.0000172081
2.78000	270.080	72092.3	0.929896	329.451	0.0000172048
2.79000	270.015	72001.1	0.928944	329.412	0.0000172014
2.80000	269.950	71910.1	0.927993	329.372	0.0000171981
2.81000	269.885	71819.1	0.927042	329.332	0.0000171947
2.82000	269.820	71728.3	0.926092	329.293	0.0000171914
2.83000	269.755	71637.5	0.925143	329.253	0.0000171880
2.84000	269.690	71546.8	0.924195	329.213	0.0000171847
2.85000	269.625	71456.2	0.923247	329.174	0.0000171813
2.86000	269.560	71365.7	0.922300	329.134	0.0000171780
2.87000	269.495	71275.3	0.921354	329.094	0.0000171746
2.88000	269.430	71185.0	0.920409	329.055	0.0000171713
2.89000	269.365	71094.8	0.919464	329.015	0.0000171680
2.90000	269.300	71004.7	0.918520	328.975	0.0000171646
2.91000	269.235	70914.7	0.917577	328.936	0.0000171613
2.92000	269.170	70824.7	0.916635	328.896	0.0000171579
2.93000	269.105	70734.9	0.915693	328.856	0.0000171546
2.94000	269.040	70645.1	0.914752	328.816	0.0000171512
2.95000	268.975	70555.5	0.913812	328.777	0.0000171479
2.96000	268.910	70465.9	0.912873	328.737	0.0000171445
2.97000	268.845	70376.4	0.911934	328.697	0.0000171412
2.98000	268.780	70287.0	0.910996	328.657	0.0000171378
2.99000	268.715	70197.7	0.910059	328.618	0.0000171345
3.00000	268.650	70108.5	0.909122	328.578	0.0000171311
3.01000	268.585	70019.4	0.908186	328.538	0.0000171277
3.02000	268.520	69930.4	0.907251	328.498	0.0000171244
3.03000	268.455	69841.5	0.906317	328.459	0.0000171210
3.04000	268.390	69752.7	0.905383	328.419	0.0000171177
3.05000	268.325	69663.9	0.904451	328.379	0.0000171143
3.06000	268.260	69575.3	0.903519	328.339	0.0000171110
3.07000	268.195	69486.7	0.902587	328.300	0.0000171076
3.08000	268.130	69398.2	0.901657	328.260	0.0000171043
3.09000	268.065	69309.9	0.900727	328.220	0.0000171009
3.10000	268.000	69221.6	0.899798	328.180	0.0000170976
3.11000	267.935	69133.4	0.898869	328.140	0.0000170942
3.12000	267.870	69045.3	0.897941	328.101	0.0000170908
3.13000	267.805	68957.3	0.897015	328.061	0.0000170875
3.14000	267.740	68869.3	0.896088	328.021	0.0000170841
3.15000	267.675	68781.5	0.895163	327.981	0.0000170808
3.16000	267.610	68693.8	0.894238	327.941	0.0000170774
3.17000	267.545	68606.1	0.893314	327.902	0.0000170741
3.18000	267.480	68518.6	0.892391	327.862	0.0000170707
3.19000	267.415	68431.1	0.891468	327.822	0.0000170673
3.20000	267.350	68343.7	0.890546	327.782	0.0000170640
3.21000	267.285	68256.4	0.889625	327.742	0.0000170606
3.22000	267.220	68169.2	0.888705	327.702	0.0000170573
3.23000	267.155	68082.1	0.887785	327.662	0.0000170539
3.24000	267.090	67995.1	0.886866	327.623	0.0000170505
3.25000	267.025	67908.2	0.885948	327.583	0.0000170472
3.26000	266.960	67821.3	0.885031	327.543	0.0000170438
3.27000	266.895	67734.6	0.884114	327.503	0.0000170405
3.28000	266.830	67647.9	0.883198	327.463	0.0000170371
3.29000	266.765	67561.4	0.882283	327.423	0.0000170337
3.30000	266.700	67474.9	0.881368	327.383	0.0000170304
3.31000	266.635	67388.5	0.880454	327.343	0.0000170270
3.32000	266.570	67302.2	0.879541	327.304	0.0000170236
3.33000	266.505	67216.0	0.878629	327.264	0.0000170203
3.34000	266.440	67129.9	0.877717	327.224	0.0000170169
3.35000	266.375	67043.9	0.876806	327.184	0.0000170135
3.36000	266.310	66957.9	0.875896	327.144	0.0000170102
3.37000	266.245	66872.1	0.874987	327.104	0.0000170068
3.38000	266.180	66786.3	0.874078	327.064	0.0000170034
3.39000	266.115	66700.6	0.873170	327.024	0.0000170001
3.40000	266.050	66615.0	0.872262	326.984	0.0000169967
3.41000	265.985	66529.6	0.871356	326.944	0.0000169933
3.42000	265.920	66444.1	0.870450	326.904	0.0000169900
3.43000	265.855	66358.8	0.869545	326.864	0.0000169866
3.44000	265.790	66273.6	0.868640	326.824	0.0000169832
3.45000	265.725	66188.5	0.867737	326.784	0.0000169799
3.46000	265.660	66103.4	0.866834	326.744	0.0000169765
3.47000	265.595	66018.4	0.865931	326.704	0.0000169731
3.48000	265.530	65933.6	0.865030	326.664	0.0000169698
3.49000	265.465	65848.8	0.864129	326.624	0.0000169664
3.50000	265.400	65764.1	0.863229	326.584	0.0000169630
3.51000	265.335	65679.5	0.862329	326.544	0.0000169597
3.52000	265.270	65595.0	0.861431	326.504	0.0000169563
3.53000	265.205	65510.5	0.860533	326.464	0.0000169529
3.54000	265.140	65426.2	0.859636	326.424	0.0000169495
3.55000	265.075	65341.9	0.858739	326.384	0.0000169462
3.56000	265.010	65257.7	0.857843	326.344	0.0000169428
3.57000	264.945	65173.7	0.856948	326.304	0.0000169394
3.58000	264.880	65089.7	0.856054	326.264	0.0000169360
3.59000	264.815	65005.8	0.855160	326.224	0.0000169327
3.60000	264.750	64921.9	0.854267	326.184	0.0000169293
3.61000	264.685	64838.2	0.853375	326.144	0.0000169259
3.62000	264.620	64754.6	0.852483	326.104	0.0000169225
3.63000	264.555	64671.0	0.851592	326.064	0.0000169192
3.64000	264.490	64587.5	0.850702	326.024	0.0000169158
3.65000	264.425	64504.2	0.849813	325.984	0.0000169124
3.66000	264.360	64420.9	0.848924	325.944	0.0000169090
3.67000	264.295	64337.7	0.848036	325.904	0.0000169057
3.68000	264.230	64254.5	0.847149	325.864	0.0000169023
3.69000	264.165	64171.5	0.846262	325.824	0.0000168989
3.70000	264.100	64088.6	0.845377	325.784	0.0000168955
3.71000	264.035	64005.7	0.844491	325.744	0.0000168922
3.72000	263.970	63922.9	0.843607	325.703	0.0000168888
3.73000	263.905	63840.2	0.842723	325.663	0.0000168854
3.74000	263.840	63757.6	0.841840	325.623	0.0000168820
3.75000	263.775	63675.1	0.840958	325.583	0.0000168786
3.76000	263.710	63592.7	0.840076	325.543	0.0000168753
3.77000	263.645	63510.4	0.839196	325.503	0.0000168719
3.78000	263.580	63428.1	0.838315	325.463	0.0000168685
3.79000	263.515	63345.9	0.837436	325.423	0.0000168651
3.80000	263.450	63263.9	0.836557	325.382	0.0000168617
3.81000	263.385	63181.9	0.835679	325.342	0.0000168584
3.82000	263.320	63100.0	0.834802	325.302	0.0000168550
3.83000	263.255	63018.1	0.833925	325.262	0.0000168516
3.84000	263.190	62936.4	0.833049	325.222	0.0000168482
3.85000	263.125	62854.7	0.832174	325.182	0.0000168448
3.86000	263.060	62773.2	0.831299	325.142	0.0000168414
3.87000	262.995	62691.7	0.830425	325.101	0.0000168380
3.88000	262.930	62610.3	0.829552	325.061	0.0000168347
3.89000	262.865	62529.0	0.828680	325.021	0.0000168313
3.90000	262.800	62447.8	0.827808	324.981	0.0000168279
3.91000	262.735	62366.6	0.826937	324.941	0.0000168245
3.92000	262.670	62285.6	0.826067	324.900	0.0000168211
3.93000	262.605	62204.6	0.825197	324.860	0.0000168177
3.94000	262.540	62123.7	0.824328	324.820	0.0000168143
3.95000	262.475	62042.9	0.823460	324.780	0.0000168110
3.96000	262.410	61962.2	0.822593	324.740	0.0000168076
3.97000	262.345	61881.6	0.821726	324.699	0.0000168042
3.98000	262.280	61801.1	0.820860	324.659	0.0000168008
3.99000	262.215	61720.6	0.819994	324.619	0.0000167974
4.00000	262.150	61640.2	0.819129	324.579	0.0000167940
4.01000	262.085	61559.9	0.818265	324.538	0.0000167906
4.02000	262.020	61479.7	0.817402	324.498	0.0000167872
4.03000	261.955	61399.6	0.816539	324.458	0.0000167838
4.04000	261.890	61319.6	0.815677	324.418	0.0000167805
4.05000	261.825	61239.6	0.814816	324.377	0.0000167771
4.06000	261.760	61159.8	0.813956	324.337	0.0000167737
4.07000	261.695	61080.0	0.813096	324.297	0.0000167703
4.08000	261.630	61000.3	0.812237	324.257	0.0000167669
4.09000	261.565	60920.7	0.811378	324.216	0.0000167635
4.10000	261.500	60841.2	0.810520	324.176	0.0000167601
4.11000	261.435	60761.7	0.809663	324.136	0.0000167567
4.12000	261.370	60682.4	0.808807	324.095	0.0000167533
4.13000	261.305	60603.1	0.807951	324.055	0.0000167499
4.14000	261.240	60523.9	0.807096	324.015	0.0000167465
4.15000	261.175	60444.8	0.806242	323.975	0.0000167431
4.16000	261.110	60365.8	0.805388	323.934	0.0000167397
4.17000	261.045	60286.8	0.804535	323.894	0.0000167363
4.18000	260.980	60208.0	0.803683	323.854	0.0000167329
4.19000	260.915	60129.2	0.802832	323.813	0.0000167295
4.20000	260.850	60050.5	0.801981	323.773	0.0000167261
4.21000	260.785	59971.9	0.801131	323.733	0.0000167228
4.22000	260.720	59893.4	0.800281	323.692	0.0000167194
4.23000	260.655	59814.9	0.799432	323.652	0.0000167160
4.24000	260.590	59736.6	0.798584	323.611	0.0000167126
4.25000	260.525	59658.3	0.797737	323.571	0.0000167092
4.26000	260.460	59580.1	0.796890	323.531	0.0000167058
4.27000	260.395	59502.0	0.796044	323.490	0.0000167024
4.28000	260.330	59424.0	0.795199	323.450	0.0000166990
4.29000	260.265	59346.1	0.794354	323.410	0.0000166956
4.30000	260.200	59268.2	0.793510	323.369	0.0000166922
4.31000	260.135	59190.4	0.792667	323.329	0.0000166888
4.32000	260.070	59112.7	0.791824	323.288	0.0000166854
4.33000	260.005	59035.1	0.790982	323.248	0.0000166820
4.34000	259.940	58957.6	0.790141	323.208	0.0000166786
4.35000	259.875	58880.1	0.789301	323.167	0.0000166751
4.36000	259.810	58802.8	0.788461	323.127	0.0000166717
4.37000	259.745	58725.5	0.787622	323.086	0.0000166683
4.38000	259.680	58648.3	0.786783	323.046	0.0000166649
4.39000	259.615	58571.2	0.785945	323.006	0.0000166615
4.40000	259.550	58494.2	0.785108	322.965	0.0000166581
4.41000	259.485	58417.2	0.784272	322.925	0.0000166547
4.42000	259.420	58340.3	0.783436	322.884	0.0000166513
4.43000	259.355	58263.5	0.782601	322.844	0.0000166479
4.44000	259.290	58186.8	0.781767	322.803	0.0000166445
4.45000	259.225	58110.2	0.780933	322.763	0.0000166411
4.46000	259.160	58033.7	0.780100	322.722	0.0000166377
4.47000	259.095	57957.2	0.779268	322.682	0.0000166343
4.48000	259.030	57880.8	0.778436	322.641	0.0000166309
4.49000	258.965	57804.5	0.777605	322.601	0.0000166275
4.50000	258.900	57728.3	0.776775	322.560	0.0000166241
4.51000	258.835	57652.2	0.775945	322.520	0.0000166207
4.52000	258.770	57576.1	0.775116	322.479	0.0000166172
4.53000	258.705	57500.2	0.774288	322.439	0.0000166138
4.54000	258.640	57424.3	0.773460	322.398	0.0000166104
4.55000	258.575	57348.5	0.772633	322.358	0.0000166070
4.56000	258.510	57272.7	0.771807	322.317	0.0000166036
4.57000	258.445	57197.1	0.770981	322.277	0.0000166002
4.58000	258.380	57121.5	0.770156	322.236	0.0000165968
4.59000	258.315	57046.0	0.769332	322.196	0.0000165934
4.60000	258.250	56970.6	0.768509	322.155	0.0000165900
4.61000	258.185	56895.3	0.767686	322.115	0.0000165865
4.62000	258.120	56820.1	0.766864	322.074	0.0000165831
4.63000	258.055	56744.9	0.766042	322.034	0.0000165797
4.64000	257.990	56669.8	0.765221	321.993	0.0000165763
4.65000	257.925	56594.8	0.764401	321.952	0.0000165729
4.66000	257.860	56519.9	0.763582	321.912	0.0000165695
4.67000	257.795	56445.0	0.762763	321.871	0.0000165661
4.68000	257.730	56370.3	0.761945	321.831	0.0000165626
4.69000	257.665	56295.6	0.761127	321.790	0.0000165592
4.70000	257.600	56221.0	0.760310	321.750	0.0000165558
4.71000	257.535	56146.5	0.759494	321.709	0.0000165524
4.72000	257.470	56072.0	0.758679	321.668	0.0000165490
4.73000	257.405	55997.7	0.757864	321.628	0.0000165456
4.74000	257.340	55923.4	0.757050	321.587	0.0000165421
4.75000	257.275	55849.2	0.756236	321.547	0.0000165387
4.76000	257.210	55775.1	0.755423	321.506	0.0000165353
4.77000	257.145	55701.0	0.754611	321.465	0.0000165319
4.78000	257.080	55627.1	0.753800	321.425	0.0000165285
4.79000	257.015	55553.2	0.752989	321.384	0.0000165250
4.80000	256.950	55479.4	0.752179	321.343	0.0000165216
4.81000	256.885	55405.7	0.751369	321.303	0.0000165182
4.82000	256.820	55332.0	0.750561	321.262	0.0000165148
4.83000	256.755	55258.5	0.749752	321.221	0.0000165114
4.84000	256.690	55185.0	0.748945	321.181	0.0000165079
4.85000	256.625	55111.6	0.748138	321.140	0.0000165045
4.86000	256.560	55038.2	0.747332	321.099	0.0000165011
4.87000	256.495	54965.0	0.746527	321.059	0.0000164977
4.88000	256.430	54891.8	0.745722	321.018	0.0000164943
4.89000	256.365	54818.7	0.744918	320.977	0.0000164908
4.90000	256.300	54745.7	0.744114	320.937	0.0000164874
4.91000	256.235	54672.8	0.743311	320.896	0.0000164840
4.92000	256.170	54599.9	0.742509	320.855	0.0000164806
4.93000	256.105	54527.1	0.741708	320.815	0.0000164771
4.94000	256.040	54454.5	0.740907	320.774	0.0000164737
4.95000	255.975	54381.8	0.740107	320.733	0.0000164703
4.96000	255.910	54309.3	0.739307	320.692	0.0000164669
4.97000	255.845	54236.8	0.738508	320.652	0.0000164634
4.98000	255.780	54164.4	0.737710	320.611	0.0000164600
4.99000	255.715	54092.1	0.736913	320.570	0.0000164566
5.00000	255.650	54019.9	0.736116	320.529	0.0000164531
5.01000	255.585	53947.8	0.735320	320.489	0.0000164497
5.02000	255.520	53875.7	0.734524	320.448	0.0000164463
5.03000	255.455	53803.7	0.733729	320.407	0.0000164429
5.04000	255.390	53731.8	0.732935	320.366	0.0000164394
5.05000	255.325	53659.9	0.732141	320.326	0.0000164360
5.06000	255.260	53588.2	0.731349	320.285	0.0000164326
5.07000	255.195	53516.5	0.730556	320.244	0.0000164291
5.08000	255.130	53444.9	0.729765	320.203	0.0000164257
5.09000	255.065	53373.4	0.728974	320.163	0.0000164223
5.10000	255.000	53301.9	0.728183	320.122	0.0000164188
5.11000	254.935	53230.6	0.727394	320.081	0.0000164154
5.12000	254.870	53159.3	0.726605	320.040	0.0000164120
5.13000	254.805	53088.0	0.725817	319.999	0.0000164085
5.14000	254.740	53016.9	0.725029	319.958	0.0000164051
5.15000	254.675	52945.8	0.724242	319.918	0.0000164017
5.16000	254.610	52874.9	0.723456	319.877	0.0000163982
5.17000	254.545	52803.9	0.722670	319.836	0.0000163948
5.18000	254.480	52733.1	0.721885	319.795	0.0000163914
5.19000	254.415	52662.4	0.721100	319.754	0.0000163879
5.20000	254.350	52591.7	0.720317	319.713	0.0000163845
5.21000	254.285	52521.1	0.719534	319.673	0.0000163811
5.22000	254.220	52450.6	0.718751	319.632	0.0000163776
5.23000	254.155	52380.1	0.717969	319.591	0.0000163742
5.24000	254.090	52309.7	0.717188	319.550	0.0000163708
5.25000	254.025	52239.4	0.716408	319.509	0.0000163673
5.26000	253.960	52169.2	0.715628	319.468	0.0000163639
5.27000	253.895	52099.1	0.714849	319.427	0.0000163604
5.28000	253.830	52029.0	0.714070	319.386	0.0000163570
5.29000	253.765	51959.0	0.713292	319.346	0.0000163536
5.30000	253.700	51889.1	0.712515	319.305	0.0000163501
5.31000	253.635	51819.3	0.711738	319.264	0.0000163467
5.32000	253.570	51749.5	0.710962	319.223	0.0000163433
5.33000	253.505	51679.8	0.710187	319.182	0.0000163398
5.34000	253.440	51610.2	0.709412	319.141	0.0000163364
5.35000	253.375	51540.7	0.708638	319.100	0.0000163329
5.36000	253.310	51471.3	0.707865	319.059	0.0000163295
5.37000	253.245	51401.9	0.707092	319.018	0.0000163260
5.38000	253.180	51332.6	0.706320	318.977	0.0000163226
5.39000	253.115	51263.3	0.705549	318.936	0.0000163192
5.40000	253.050	51194.2	0.704778	318.895	0.0000163157
5.41000	252.985	51125.1	0.704008	318.854	0.0000163123
5.42000	252.920	51056.1	0.703238	318.813	0.0000163088
5.43000	252.855	50987.2	0.702470	318.772	0.0000163054
5.44000	252.790	50918.3	0.701701	318.732	0.0000163019
5.45000	252.725	50849.6	0.700934	318.691	0.0000162985
5.46000	252.660	50780.9	0.700167	318.650	0.0000162950
5.47000	252.595	50712.2	0.699401	318.609	0.0000162916
5.48000	252.530	50643.7	0.698635	318.568	0.0000162882
5.49000	252.465	50575.2	0.697870	318.527	0.0000162847
5.50000	252.400	50506.8	0.697106	318.486	0.0000162813
5.51000	252.335	50438.5	0.696342	318.445	0.0000162778
5.52000	252.270	50370.2	0.695579	318.404	0.0000162744
5.53000	252.205	50302.1	0.694816	318.363	0.0000162709
5.54000	252.140	50234.0	0.694055	318.321	0.0000162675
5.55000	252.075	50165.9	0.693294	318.280	0.0000162640
5.56000	252.010	50098.0	0.692533	318.239	0.0000162606
5.57000	251.945	50030.1	0.691773	318.198	0.0000162571
5.58000	251.880	49962.3	0.691014	318.157	0.0000162537
5.59000	251.815	49894.6	0.690255	318.116	0.0000162502
5.60000	251.750	49826.9	0.689497	318.075	0.0000162468
5.61000	251.685	49759.3	0.688740	318.034	0.0000162433
5.62000	251.620	49691.8	0.687983	317.993	0.0000162399
5.63000	251.555	49624.4	0.687227	317.952	0.0000162364
5.64000	251.490	49557.0	0.686472	317.911	0.0000162330
5.65000	251.425	49489.8	0.685717	317.870	0.0000162295
5.66000	251.360	49422.5	0.684963	317.829	0.0000162260
5.67000	251.295	49355.4	0.684209	317.788	0.0000162226
5.68000	251.230	49288.4	0.683457	317.747	0.0000162191
5.69000	251.165	49221.4	0.682704	317.705	0.0000162157
5.70000	251.100	49154.5	0.681953	317.664	0.0000162122
5.71000	251.035	49087.6	0.681202	317.623	0.0000162088
5.72000	250.970	49020.8	0.680451	317.582	0.0000162053
5.73000	250.905	48954.2	0.679702	317.541	0.0000162019
5.74000	250.840	48887.5	0.678953	317.500	0.0000161984
5.75000	250.775	48821.0	0.678204	317.459	0.0000161949
5.76000	250.710	48754.5	0.677456	317.418	0.0000161915
5.77000	250.645	48688.1	0.676709	317.376	0.0000161880
5.78000	250.580	48621.8	0.675963	317.335	0.0000161846
5.79000	250.515	48555.5	0.675217	317.294	0.0000161811
5.80000	250.450	48489.4	0.674471	317.253	0.0000161777
5.81000	250.385	48423.3	0.673727	317.212	0.0000161742
5.82000	250.320	48357.2	0.672983	317.171	0.0000161707
5.83000	250.255	48291.3	0.672239	317.129	0.0000161673
5.84000	250.190	48225.4	0.671496	317.088	0.0000161638
5.85000	250.125	48159.6	0.670754	317.047	0.0000161604
5.86000	250.060	48093.8	0.670013	317.006	0.0000161569
5.87000	249.995	48028.1	0.669272	316.965	0.0000161534
5.88000	249.930	47962.5	0.668532	316.923	0.0000161500
5.89000	249.865	47897.0	0.667792	316.882	0.0000161465
5.90000	249.800	47831.6	0.667053	316.841	0.0000161430
5.91000	249.735	47766.2	0.666315	316.800	0.0000161396
5.92000	249.670	47700.9	0.665577	316.758	0.0000161361
5.93000	249.605	47635.6	0.664840	316.717	0.0000161327
5.94000	249.540	47570.5	0.664103	316.676	0.0000161292
5.95000	249.475	47505.4	0.663367	316.635	0.0000161257
5.96000	249.410	47440.4	0.662632	316.593	0.0000161223
5.97000	249.345	47375.4	0.661897	316.552	0.0000161188
5.98000	249.280	47310.6	0.661163	316.511	0.0000161153
5.99000	249.215	47245.8	0.660430	316.470	0.0000161119
6.00000	249.150	47181.0	0.659697	316.428	0.0000161084
6.01000	249.085	47116.4	0.658965	316.387	0.0000161049
6.02000	249.020	47051.8	0.658233	316.346	0.0000161015
6.03000	248.955	46987.3	0.657503	316.305	0.0000160980
6.04000	248.890	46922.8	0.656772	316.263	0.0000160945
6.05000	248.825	46858.5	0.656043	316.222	0.0000160910
6.06000	248.760	46794.2	0.655314	316.181	0.0000160876
6.07000	248.695	46729.9	0.654585	316.139	0.0000160841
6.08000	248.630	46665.8	0.653857	316.098	0.0000160806
6.09000	248.565	46601.7	0.653130	316.057	0.0000160772
6.10000	248.500	46537.7	0.652404	316.015	0.0000160737
6.11000	248.435	46473.7	0.651678	315.974	0.0000160702
6.12000	248.370	46409.9	0.650952	315.933	0.0000160668
6.13000	248.305	46346.1	0.650228	315.891	0.0000160633
6.14000	248.240	46282.3	0.649503	315.850	0.0000160598
6.15000	248.175	46218.7	0.648780	315.809	0.0000160563
6.16000	248.110	46155.1	0.648057	315.767	0.0000160529
6.17000	248.045	46091.6	0.647335	315.726	0.0000160494
6.18000	247.980	46028.1	0.646613	315.685	0.0000160459
6.19000	247.915	45964.7	0.645892	315.643	0.0000160424
6.20000	247.850	45901.4	0.645172	315.602	0.0000160390
6.21000	247.785	45838.2	0.644452	315.560	0.0000160355
6.22000	247.720	45775.0	0.643733	315.519	0.0000160320
6.23000	247.655	45711.9	0.643014	315.478	0.0000160285
6.24000	247.590	45648.9	0.642296	315.436	0.0000160251
6.25000	247.525	45586.0	0.641579	315.395	0.0000160216
6.26000	247.460	45523.1	0.640862	315.353	0.0000160181
6.27000	247.395	45460.3	0.640146	315.312	0.0000160146
6.28000	247.330	45397.5	0.639431	315.271	0.0000160111
6.29000	247.265	45334.9	0.638716	315.229	0.0000160077
6.30000	247.200	45272.3	0.638002	315.188	0.0000160042
6.31000	247.135	45209.7	0.637288	315.146	0.0000160007
6.32000	247.070	45147.3	0.636575	315.105	0.0000159972
6.33000	247.005	45084.9	0.635862	315.063	0.0000159937
6.34000	246.940	45022.5	0.635151	315.022	0.0000159903
6.35000	246.875	44960.3	0.634439	314.980	0.0000159868
6.36000	246.810	44898.1	0.633729	314.939	0.0000159833
6.37000	246.745	44836.0	0.633019	314.898	0.0000159798
6.38000	246.680	44774.0	0.632309	314.856	0.0000159763
6.39000	246.615	44712.0	0.631601	314.815	0.0000159729
6.40000	246.550	44650.1	0.630892	314.773	0.0000159694
6.41000	246.485	44588.2	0.630185	314.732	0.0000159659
6.42000	246.420	44526.5	0.629478	314.690	0.0000159624
6.43000	246.355	44464.8	0.628772	314.649	0.0000159589
6.44000	246.290	44403.2	0.628066	314.607	0.0000159554
6.45000	246.225	44341.6	0.627361	314.566	0.0000159520
6.46000	246.160	44280.1	0.626656	314.524	0.0000159485
6.47000	246.095	44218.7	0.625952	314.482	0.0000159450
6.48000	246.030	44157.3	0.625249	314.441	0.0000159415
6.49000	245.965	44096.1	0.624546	314.399	0.0000159380
6.50000	245.900	44034.8	0.623844	314.358	0.0000159345
6.51000	245.835	43973.7	0.623143	314.316	0.0000159310
6.52000	245.770	43912.6	0.622442	314.275	0.0000159275
6.53000	245.705	43851.6	0.621741	314.233	0.0000159241
6.54000	245.640	43790.7	0.621042	314.192	0.0000159206
6.55000	245.575	43729.8	0.620343	314.150	0.0000159171
6.56000	245.510	43669.0	0.619644	314.108	0.0000159136
6.57000	245.445	43608.3	0.618946	314.067	0.0000159101
6.58000	245.380	43547.6	0.618249	314.025	0.0000159066
6.59000	245.315	43487.0	0.617552	313.984	0.0000159031
6.60000	245.250	43426.5	0.616856	313.942	0.0000158996
6.61000	245.185	43366.0	0.616161	313.901	0.0000158961
6.62000	245.120	43305.6	0.615466	313.859	0.0000158926
6.63000	245.055	43245.3	0.614771	313.817	0.0000158892
6.64000	244.990	43185.1	0.614078	313.776	0.0000158857
6.65000	244.925	43124.9	0.613385	313.734	0.0000158822
6.66000	244.860	43064.8	0.612692	313.692	0.0000158787
6.67000	244.795	43004.7	0.612000	313.651	0.0000158752
6.68000	244.730	42944.7	0.611309	313.609	0.0000158717
6.69000	244.665	42884.8	0.610618	313.567	0.0000158682
6.70000	244.600	42825.0	0.609928	313.526	0.0000158647
6.71000	244.535	42765.2	0.609239	313.484	0.0000158612
6.72000	244.470	42705.5	0.608550	313.442	0.0000158577
6.73000	244.405	42645.8	0.607861	313.401	0.0000158542
6.74000	244.340	42586.3	0.607174	313.359	0.0000158507
6.75000	244.275	42526.7	0.606487	313.317	0.0000158472
6.76000	244.210	42467.3	0.605800	313.276	0.0000158437
6.77000	244.145	42407.9	0.605114	313.234	0.0000158402
6.78000	244.080	42348.6	0.604429	313.192	0.0000158367
6.79000	244.015	42289.4	0.603744	313.151	0.0000158332
6.80000	243.950	42230.2	0.603060	313.109	0.0000158297
6.81000	243.885	42171.1	0.602376	313.067	0.0000158262
6.82000	243.820	42112.1	0.601693	313.026	0.0000158227
6.83000	243.755	42053.1	0.601011	312.984	0.0000158192
6.84000	243.690	41994.2	0.600329	312.942	0.0000158157
6.85000	243.625	41935.3	0.599648	312.900	0.0000158122
6.86000	243.560	41876.6	0.598968	312.859	0.0000158087
6.87000	243.495	41817.9	0.598287	312.817	0.0000158052
6.88000	243.430	41759.2	0.597608	312.775	0.0000158017
6.89000	243.365	41700.7	0.596929	312.733	0.0000157982
6.90000	243.300	41642.2	0.596251	312.692	0.0000157947
6.91000	243.235	41583.7	0.595573	312.650	0.0000157912
6.92000	243.170	41525.3	0.594896	312.608	0.0000157877
6.93000	243.105	41467.0	0.594220	312.566	0.0000157842
6.94000	243.040	41408.8	0.593544	312.524	0.0000157807
6.95000	242.975	41350.6	0.592869	312.483	0.0000157772
6.96000	242.910	41292.5	0.592194	312.441	0.0000157737
6.97000	242.845	41234.5	0.591520	312.399	0.0000157702
6.98000	242.780	41176.5	0.590846	312.357	0.0000157667
6.99000	242.715	41118.6	0.590173	312.315	0.0000157632
7.00000	242.650	41060.7	0.589501	312.274	0.0000157596
7.01000	242.585	41003.0	0.588829	312.232	0.0000157561
7.02000	242.520	40945.3	0.588158	312.190	0.0000157526
7.03000	242.455	40887.6	0.587488	312.148	0.0000157491
7.04000	242.390	40830.0	0.586818	312.106	0.0000157456
7.05000	242.325	40772.5	0.586148	312.064	0.0000157421
7.06000	242.260	40715.1	0.585479	312.023	0.0000157386
7.07000	242.195	40657.7	0.584811	311.981	0.0000157351
7.08000	242.130	40600.4	0.584143	311.939	0.0000157316
7.09000	242.065	40543.1	0.583476	311.897	0.0000157281
7.10000	242.000	40485.9	0.582810	311.855	0.0000157245
7.11000	241.935	40428.8	0.582144	311.813	0.0000157210
7.12000	241.870	40371.7	0.581478	311.771	0.0000157175
7.13000	241.805	40314.8	0.580814	311.729	0.0000157140
7.14000	241.740	40257.8	0.580150	311.687	0.0000157105
7.15000	241.675	40201.0	0.579486	311.646	0.0000157070
7.16000	241.610	40144.2	0.578823	311.604	0.0000157035
7.17000	241.545	40087.4	0.578161	311.562	0.0000157000
7.18000	241.480	40030.8	0.577499	311.520	0.0000156964
7.19000	241.415	39974.2	0.576837	311.478	0.0000156929
7.20000	241.350	39917.6	0.576177	311.436	0.0000156894
7.21000	241.285	39861.2	0.575517	311.394	0.0000156859
7.22000	241.220	39804.8	0.574857	311.352	0.0000156824
7.23000	241.155	39748.4	0.574198	311.310	0.0000156789
7.24000	241.090	39692.1	0.573540	311.268	0.0000156753
7.25000	241.025	39635.9	0.572882	311.226	0.0000156718
7.26000	240.960	39579.8	0.572225	311.184	0.0000156683
7.27000	240.895	39523.7	0.571568	311.142	0.0000156648
7.28000	240.830	39467.7	0.570912	311.100	0.0000156613
7.29000	240.765	39411.7	0.570256	311.058	0.0000156577
7.30000	240.700	39355.8	0.569602	311.016	0.0000156542
7.31000	240.635	39300.0	0.568947	310.974	0.0000156507
7.32000	240.570	39244.2	0.568293	310.932	0.0000156472
7.33000	240.505	39188.5	0.567640	310.890	0.0000156437
7.34000	240.440	39132.9	0.566988	310.848	0.0000156401
7.35000	240.375	39077.3	0.566336	310.806	0.0000156366
7.36000	240.310	39021.8	0.565684	310.764	0.0000156331
7.37000	240.245	38966.4	0.565033	310.722	0.0000156296
7.38000	240.180	38911.0	0.564383	310.680	0.0000156261
7.39000	240.115	38855.7	0.563733	310.638	0.0000156225
7.40000	240.050	38800.4	0.563084	310.596	0.0000156190
7.41000	239.985	38745.3	0.562435	310.554	0.0000156155
7.42000	239.920	38690.1	0.561787	310.512	0.0000156120
7.43000	239.855	38635.1	0.561140	310.470	0.0000156084
7.44000	239.790	38580.1	0.560493	310.428	0.0000156049
7.45000	239.725	38525.1	0.559847	310.386	0.0000156014
7.46000	239.660	38470.3	0.559201	310.344	0.0000155979
7.47000	239.595	38415.5	0.558556	310.302	0.0000155943
7.48000	239.530	38360.7	0.557911	310.259	0.0000155908
7.49000	239.465	38306.0	0.557267	310.217	0.0000155873
7.50000	239.400	38251.4	0.556624	310.175	0.0000155837
7.51000	239.335	38196.9	0.555981	310.133	0.0000155802
7.52000	239.270	38142.4	0.555338	310.091	0.0000155767
7.53000	239.205	38087.9	0.554697	310.049	0.0000155732
7.54000	239.140	38033.6	0.554055	310.007	0.0000155696
7.55000	239.075	37979.3	0.553415	309.965	0.0000155661
7.56000	239.010	37925.0	0.552775	309.922	0.0000155626
7.57000	238.945	37870.9	0.552135	309.880	0.0000155590
7.58000	238.880	37816.7	0.551496	309.838	0.0000155555
7.59000	238.815	37762.7	0.550858	309.796	0.0000155520
7.60000	238.750	37708.7	0.550220	309.754	0.0000155484
7.61000	238.685	37654.8	0.549583	309.712	0.0000155449
7.62000	238.620	37600.9	0.548946	309.670	0.0000155414
7.63000	238.555	37547.1	0.548310	309.627	0.0000155378
7.64000	238.490	37493.4	0.547674	309.585	0.0000155343
7.65000	238.425	37439.7	0.547039	309.543	0.0000155308
7.66000	238.360	37386.1	0.546405	309.501	0.0000155272
7.67000	238.295	37332.5	0.545771	309.459	0.0000155237
7.68000	238.230	37279.0	0.545138	309.416	0.0000155202
7.69000	238.165	37225.6	0.544505	309.374	0.0000155166
7.70000	238.100	37172.2	0.543873	309.332	0.0000155131
7.71000	238.035	37118.9	0.543241	309.290	0.0000155096
7.72000	237.970	37065.7	0.542610	309.247	0.0000155060
7.73000	237.905	37012.5	0.541980	309.205	0.0000155025
7.74000	237.840	36959.4	0.541350	309.163	0.0000154989
7.75000	237.775	36906.3	0.540721	309.121	0.0000154954
7.76000	237.710	36853.3	0.540092	309.078	0.0000154919
7.77000	237.645	36800.4	0.539463	309.036	0.0000154883
7.78000	237.580	36747.5	0.538836	308.994	0.0000154848
7.79000	237.515	36694.7	0.538209	308.952	0.0000154812
7.80000	237.450	36642.0	0.537582	308.909	0.0000154777
7.81000	237.385	36589.3	0.536956	308.867	0.0000154742
7.82000	237.320	36536.7	0.536331	308.825	0.0000154706
7.83000	237.255	36484.1	0.535706	308.783	0.0000154671
7.84000	237.190	36431.6	0.535081	308.740	0.0000154635
7.85000	237.125	36379.1	0.534458	308.698	0.0000154600
7.86000	237.060	36326.8	0.533834	308.656	0.0000154565
7.87000	236.995	36274.4	0.533212	308.613	0.0000154529
7.88000	236.930	36222.2	0.532590	308.571	0.0000154494
7.89000	236.865	36170.0	0.531968	308.529	0.0000154458
7.90000	236.800	36117.8	0.531347	308.486	0.0000154423
7.91000	236.735	36065.8	0.530727	308.444	0.0000154387
7.92000	236.670	36013.8	0.530107	308.402	0.0000154352
7.93000	236.605	35961.8	0.529487	308.359	0.0000154316
7.94000	236.540	35909.9	0.528869	308.317	0.0000154281
7.95000	236.475	35858.1	0.528250	308.275	0.0000154245
7.96000	236.410	35806.3	0.527633	308.232	0.0000154210
7.97000	236.345	35754.6	0.527016	308.190	0.0000154175
7.98000	236.280	35702.9	0.526399	308.147	0.0000154139
7.99000	236.215	35651.3	0.525783	308.105	0.0000154104
8.00000	236.150	35599.8	0.525168	308.063	0.0000154068
8.01000	236.085	35548.3	0.524553	308.020	0.0000154033
8.02000	236.020	35496.9	0.523938	307.978	0.0000153997
8.03000	235.955	35445.6	0.523324	307.935	0.0000153962
8.04000	235.890	35394.3	0.522711	307.893	0.0000153926
8.05000	235.825	35343.1	0.522098	307.851	0.0000153891
8.06000	235.760	35291.9	0.521486	307.808	0.0000153855
8.07000	235.695	35240.8	0.520875	307.766	0.0000153820
8.08000	235.630	35189.7	0.520264	307.723	0.0000153784
8.09000	235.565	35138.7	0.519653	307.681	0.0000153748
8.10000	235.500	35087.8	0.519043	307.638	0.0000153713
8.11000	235.435	35036.9	0.518434	307.596	0.0000153677
8.12000	235.370	34986.1	0.517825	307.553	0.0000153642
8.13000	235.305	34935.4	0.517216	307.511	0.0000153606
8.14000	235.240	34884.7	0.516609	307.469	0.0000153571
8.15000	235.175	34834.0	0.516001	307.426	0.0000153535
8.16000	235.110	34783.5	0.515395	307.384	0.0000153500
8.17000	235.045	34733.0	0.514789	307.341	0.0000153464
8.18000	234.980	34682.5	0.514183	307.299	0.0000153429
8.19000	234.915	34632.1	0.513578	307.256	0.0000153393
8.20000	234.850	34581.8	0.512973	307.214	0.0000153357
8.21000	234.785	34531.5	0.512369	307.171	0.0000153322
8.22000	234.720	34481.3	0.511766	307.128	0.0000153286
8.23000	234.655	34431.1	0.511163	307.086	0.0000153251
8.24000	234.590	34381.0	0.510561	307.043	0.0000153215
8.25000	234.525	34331.0	0.509959	307.001	0.0000153179
8.26000	234.460	34281.0	0.509358	306.958	0.0000153144
8.27000	234.395	34231.1	0.508757	306.916	0.0000153108
8.28000	234.330	34181.2	0.508157	306.873	0.0000153073
8.29000	234.265	34131.4	0.507557	306.831	0.0000153037
8.30000	234.200	34081.7	0.506958	306.788	0.0000153001
8.31000	234.135	34032.0	0.506360	306.746	0.0000152966
8.32000	234.070	33982.4	0.505762	306.703	0.0000152930
8.33000	234.005	33932.8	0.505164	306.660	0.0000152895
8.34000	233.940	33883.3	0.504567	306.618	0.0000152859
8.35000	233.875	33833.8	0.503971	306.575	0.0000152823
8.36000	233.810	33784.4	0.503375	306.533	0.0000152788
8.37000	233.745	33735.1	0.502780	306.490	0.0000152752
8.38000	233.680	33685.8	0.502185	306.447	0.0000152716
8.39000	233.615	33636.6	0.501591	306.405	0.0000152681
8.40000	233.550	33587.5	0.500997	306.362	0.0000152645
8.41000	233.485	33538.3	0.500404	306.319	0.0000152609
8.42000	233.420	33489.3	0.499811	306.277	0.0000152574
8.43000	233.355	33440.3	0.499219	306.234	0.0000152538
8.44000	233.290	33391.4	0.498628	306.191	0.0000152502
8.45000	233.225	33342.5	0.498037	306.149	0.0000152467
8.46000	233.160	33293.7	0.497446	306.106	0.0000152431
8.47000	233.095	33245.0	0.496856	306.064	0.0000152395
8.48000	233.030	33196.3	0.496267	306.021	0.0000152360
8.49000	232.965	33147.6	0.495678	305.978	0.0000152324
8.50000	232.900	33099.0	0.495090	305.935	0.0000152288
8.51000	232.835	33050.5	0.494502	305.893	0.0000152252
8.52000	232.770	33002.1	0.493915	305.850	0.0000152217
8.53000	232.705	32953.6	0.493328	305.807	0.0000152181
8.54000	232.640	32905.3	0.492742	305.765	0.0000152145
8.55000	232.575	32857.0	0.492156	305.722	0.0000152110
8.56000	232.510	32808.8	0.491571	305.679	0.0000152074
8.57000	232.445	32760.6	0.490987	305.636	0.0000152038
8.58000	232.380	32712.5	0.490402	305.594	0.0000152002
8.59000	232.315	32664.4	0.489819	305.551	0.0000151967
8.60000	232.250	32616.4	0.489236	305.508	0.0000151931
8.61000	232.185	32568.4	0.488654	305.465	0.0000151895
8.62000	232.120	32520.6	0.488072	305.423	0.0000151859
8.63000	232.055	32472.7	0.487490	305.380	0.0000151824
8.64000	231.990	32424.9	0.486909	305.337	0.0000151788
8.65000	231.925	32377.2	0.486329	305.294	0.0000151752
8.66000	231.860	32329.6	0.485749	305.252	0.0000151716
8.67000	231.795	32282.0	0.485170	305.209	0.0000151681
8.68000	231.730	32234.4	0.484591	305.166	0.0000151645
8.69000	231.665	32186.9	0.484013	305.123	0.0000151609
8.70000	231.600	32139.5	0.483435	305.080	0.0000151573
8.71000	231.535	32092.1	0.482858	305.038	0.0000151537
8.72000	231.470	32044.8	0.482281	304.995	0.0000151502
8.73000	231.405	31997.5	0.481705	304.952	0.0000151466
8.74000	231.340	31950.3	0.481130	304.909	0.0000151430
8.75000	231.275	31903.1	0.480555	304.866	0.0000151394
8.76000	231.210	31856.0	0.479980	304.823	0.0000151358
8.77000	231.145	31809.0	0.479406	304.781	0.0000151323
8.78000	231.080	31762.0	0.478833	304.738	0.0000151287
8.79000	231.015	31715.1	0.478260	304.695	0.0000151251
8.80000	230.950	31668.2	0.477687	304.652	0.0000151215
8.81000	230.885	31621.4	0.477115	304.609	0.0000151179
8.82000	230.820	31574.6	0.476544	304.566	0.0000151143
8.83000	230.755	31527.9	0.475973	304.523	0.0000151108
8.84000	230.690	31481.3	0.475403	304.480	0.0000151072
8.85000	230.625	31434.7	0.474833	304.438	0.0000151036
8.86000	230.560	31388.1	0.474264	304.395	0.0000151000
8.87000	230.495	31341.7	0.473695	304.352	0.0000150964
8.88000	230.430	31295.2	0.473127	304.309	0.0000150928
8.89000	230.365	31248.9	0.472559	304.266	0.0000150893
8.90000	230.300	31202.6	0.471992	304.223	0.0000150857
8.91000	230.235	31156.3	0.471425	304.180	0.0000150821
8.92000	230.170	31110.1	0.470859	304.137	0.0000150785
8.93000	230.105	31063.9	0.470293	304.094	0.0000150749
8.94000	230.040	31017.9	0.469728	304.051	0.0000150713
8.95000	229.975	30971.8	0.469163	304.008	0.0000150677
8.96000	229.910	30925.8	0.468599	303.965	0.0000150641
8.97000	229.845	30879.9	0.468036	303.922	0.0000150605
8.98000	229.780	30834.0	0.467473	303.879	0.0000150570
8.99000	229.715	30788.2	0.466910	303.836	0.0000150534
9.00000	229.650	30742.5	0.466348	303.793	0.0000150498
9.01000	229.585	30696.8	0.465787	303.750	0.0000150462
9.02000	229.520	30651.1	0.465226	303.707	0.0000150426
9.03000	229.455	30605.5	0.464665	303.664	0.0000150390
9.04000	229.390	30560.0	0.464105	303.621	0.0000150354
9.05000	229.325	30514.5	0.463546	303.578	0.0000150318
9.06000	229.260	30469.0	0.462987	303.535	0.0000150282
9.07000	229.195	30423.7	0.462429	303.492	0.0000150246
9.08000	229.130	30378.4	0.461871	303.449	0.0000150210
9.09000	229.065	30333.1	0.461313	303.406	0.0000150174
9.10000	229.000	30287.9	0.460756	303.363	0.0000150138
9.11000	228.935	30242.7	0.460200	303.320	0.0000150102
9.12000	228.870	30197.6	0.459644	303.277	0.0000150066
9.13000	228.805	30152.6	0.459089	303.234	0.0000150030
9.14000	228.740	30107.6	0.458534	303.191	0.0000149994
9.15000	228.675	30062.6	0.457980	303.148	0.0000149958
9.16000	228.610	30017.7	0.457426	303.105	0.0000149922
9.17000	228.545	29972.9	0.456873	303.062	0.0000149886
9.18000	228.480	29928.1	0.456320	303.019	0.0000149850
9.19000	228.415	29883.4	0.455768	302.975	0.0000149814
9.20000	228.350	29838.7	0.455216	302.932	0.0000149778
9.21000	228.285	29794.1	0.454665	302.889	0.0000149742
9.22000	228.220	29749.6	0.454114	302.846	0.0000149706
9.23000	228.155	29705.1	0.453564	302.803	0.0000149670
9.24000	228.090	29660.6	0.453014	302.760	0.0000149634
9.25000	228.025	29616.2	0.452465	302.717	0.0000149598
9.26000	227.960	29571.9	0.451917	302.673	0.0000149562
9.27000	227.895	29527.6	0.451368	302.630	0.0000149526
9.28000	227.830	29483.3	0.450821	302.587	0.0000149490
9.29000	227.765	29439.2	0.450274	302.544	0.0000149454
9.30000	227.700	29395.0	0.449727	302.501	0.0000149418
9.31000	227.635	29351.0	0.449181	302.458	0.0000149382
9.32000	227.570	29306.9	0.448635	302.414	0.0000149346
9.33000	227.505	29263.0	0.448090	302.371	0.0000149310
9.34000	227.440	29219.0	0.447546	302.328	0.0000149274
9.35000	227.375	29175.2	0.447001	302.285	0.0000149238
9.36000	227.310	29131.4	0.446458	302.242	0.0000149202
9.37000	227.245	29087.6	0.445915	302.198	0.0000149166
9.38000	227.180	29043.9	0.445372	302.155	0.0000149130
9.39000	227.115	29000.3	0.444830	302.112	0.0000149094
9.40000	227.050	28956.7	0.444289	302.069	0.0000149058
9.41000	226.985	28913.1	0.443748	302.026	0.0000149021
9.42000	226.920	28869.6	0.443207	301.982	0.0000148985
9.43000	226.855	28826.2	0.442667	301.939	0.0000148949
9.44000	226.790	28782.8	0.442127	301.896	0.0000148913
9.45000	226.725	28739.5	0.441588	301.852	0.0000148877
9.46000	226.660	28696.2	0.441050	301.809	0.0000148841
9.47000	226.595	28653.0	0.440512	301.766	0.0000148805
9.48000	226.530	28609.8	0.439974	301.723	0.0000148769
9.49000	226.465	28566.7	0.439437	301.679	0.0000148733
9.50000	226.400	28523.6	0.438901	301.636	0.0000148696
9.51000	226.335	28480.6	0.438365	301.593	0.0000148660
9.52000	226.270	28437.6	0.437829	301.549	0.0000148624
9.53000	226.205	28394.7	0.437294	301.506	0.0000148588
9.54000	226.140	28351.9	0.436760	301.463	0.0000148552
9.55000	226.075	28309.1	0.436226	301.419	0.0000148516
9.56000	226.010	28266.3	0.435692	301.376	0.0000148479
9.57000	225.945	28223.6	0.435159	301.333	0.0000148443
9.58000	225.880	28181.0	0.434626	301.289	0.0000148407
9.59000	225.815	28138.4	0.434094	301.246	0.0000148371
9.60000	225.750	28095.8	0.433563	301.203	0.0000148335
9.61000	225.685	28053.3	0.433032	301.159	0.0000148299
9.62000	225.620	28010.9	0.432501	301.116	0.0000148262
9.63000	225.555	27968.5	0.431971	301.073	0.0000148226
9.64000	225.490	27926.2	0.431442	301.029	0.0000148190
9.65000	225.425	27883.9	0.430913	300.986	0.0000148154
9.66000	225.360	27841.7	0.430384	300.942	0.0000148118
9.67000	225.295	27799.5	0.429856	300.899	0.0000148081
9.68000	225.230	27757.3	0.429329	300.856	0.0000148045
9.69000	225.165	27715.3	0.428801	300.812	0.0000148009
9.70000	225.100	27673.2	0.428275	300.769	0.0000147973
9.71000	225.035	27631.3	0.427749	300.725	0.0000147937
9.72000	224.970	27589.3	0.427223	300.682	0.0000147900
9.73000	224.905	27547.5	0.426698	300.639	0.0000147864
9.74000	224.840	27505.7	0.426174	300.595	0.0000147828
9.75000	224.775	27463.9	0.425649	300.552	0.0000147792
9.76000	224.710	27422.2	0.425126	300.508	0.0000147755
9.77000	224.645	27380.5	0.424603	300.465	0.0000147719
9.78000	224.580	27338.9	0.424080	300.421	0.0000147683
9.79000	224.515	27297.3	0.423558	300.378	0.0000147647
9.80000	224.450	27255.8	0.423036	300.334	0.0000147610
9.81000	224.385	27214.4	0.422515	300.291	0.0000147574
9.82000	224.320	27172.9	0.421995	300.247	0.0000147538
9.83000	224.255	27131.6	0.421474	300.204	0.0000147502
9.84000	224.190	27090.3	0.420955	300.160	0.0000147465
9.85000	224.125	27049.0	0.420436	300.117	0.0000147429
9.86000	224.060	27007.8	0.419917	300.073	0.0000147393
9.87000	223.995	26966.7	0.419399	300.030	0.0000147356
9.88000	223.930	26925.6	0.418881	299.986	0.0000147320
9.89000	223.865	26884.5	0.418364	299.943	0.0000147284
9.90000	223.800	26843.5	0.417847	299.899	0.0000147247
9.91000	223.735	26802.6	0.417331	299.856	0.0000147211
9.92000	223.670	26761.7	0.416815	299.812	0.0000147175
9.93000	223.605	26720.8	0.416300	299.768	0.0000147139
9.94000	223.540	26680.0	0.415785	299.725	0.0000147102
9.95000	223.475	26639.3	0.415271	299.681	0.0000147066
9.96000	223.410	26598.6	0.414757	299.638	0.0000147030
9.97000	223.345	26557.9	0.414244	299.594	0.0000146993
9.98000	223.280	26517.3	0.413731	299.550	0.0000146957
9.99000	223.215	26476.8	0.413218	299.507	0.0000146921
10.0000	223.150	26436.3	0.412707	299.463	0.0000146884
10.0100	223.085	26395.8	0.412195	299.420	0.0000146848
10.0200	223.020	26355.4	0.411684	299.376	0.0000146811
10.0300	222.955	26315.1	0.411174	299.332	0.0000146775
10.0400	222.890	26274.8	0.410664	299.289	0.0000146739
10.0500	222.825	26234.5	0.410155	299.245	0.0000146702
10.0600	222.760	26194.3	0.409646	299.201	0.0000146666
10.0700	222.695	26154.2	0.409137	299.158	0.0000146630
10.0800	222.630	26114.1	0.408629	299.114	0.0000146593
10.0900	222.565	26074.0	0.408122	299.070	0.0000146557
10.1000	222.500	26034.0	0.407615	299.027	0.0000146520
10.1100	222.435	25994.1	0.407108	298.983	0.0000146484
10.1200	222.370	25954.2	0.406602	298.939	0.0000146448
10.1300	222.305	25914.3	0.406096	298.896	0.0000146411
10.1400	222.240	25874.5	0.405591	298.852	0.0000146375
10.1500	222.175	25834.8	0.405087	298.808	0.0000146338
10.1600	222.110	25795.1	0.404583	298.765	0.0000146302
10.1700	222.045	25755.4	0.404079	298.721	0.0000146266
10.1800	221.980	25715.8	0.403576	298.677	0.0000146229
10.1900	221.915	25676.3	0.403073	298.633	0.0000146193
10.2000	221.850	25636.8	0.402571	298.590	0.0000146156
10.2100	221.785	25597.3	0.402069	298.546	0.0000146120
10.2200	221.720	25557.9	0.401568	298.502	0.0000146083
10.2300	221.655	25518.6	0.401067	298.458	0.0000146047
10.2400	221.590	25479.3	0.400567	298.415	0.0000146010
10.2500	221.525	25440.0	0.400067	298.371	0.0000145974
10.2600	221.460	25400.8	0.399568	298.327	0.0000145937
10.2700	221.395	25361.6	0.399069	298.283	0.0000145901
10.2800	221.330	25322.5	0.398570	298.240	0.0000145865
10.2900	221.265	25283.5	0.398072	298.196	0.0000145828
10.3000	221.200	25244.5	0.397575	298.152	0.0000145792
10.3100	221.135	25205.5	0.397078	298.108	0.0000145755
10.3200	221.070	25166.6	0.396581	298.064	0.0000145719
10.3300	221.005	25127.7	0.396085	298.020	0.0000145682
10.3400	220.940	25088.9	0.395590	297.977	0.0000145646
10.3500	220.875	25050.1	0.395095	297.933	0.0000145609
10.3600	220.810	25011.4	0.394600	297.889	0.0000145573
10.3700	220.745	24972.7	0.394106	297.845	0.0000145536
10.3800	220.680	24934.1	0.393612	297.801	0.0000145499
10.3900	220.615	24895.5	0.393119	297.757	0.0000145463
10.4000	220.550	24857.0	0.392627	297.714	0.0000145426
10.4100	220.485	24818.5	0.392134	297.670	0.0000145390
10.4200	220.420	24780.1	0.391643	297.626	0.0000145353
10.4300	220.355	24741.7	0.391151	297.582	0.0000145317
10.4400	220.290	24703.4	0.390660	297.538	0.0000145280
10.4500	220.225	24665.1	0.390170	297.494	0.0000145244
10.4600	220.160	24626.8	0.389680	297.450	0.0000145207
10.4700	220.095	24588.7	0.389191	297.406	0.0000145171
10.4800	220.030	24550.5	0.388702	297.362	0.0000145134
10.4900	219.965	24512.4	0.388213	297.318	0.0000145097
10.5000	219.900	24474.4	0.387725	297.275	0.0000145061
10.5100	219.835	24436.4	0.387238	297.231	0.0000145024
10.5200	219.770	24398.4	0.386751	297.187	0.0000144988
10.5300	219.705	24360.5	0.386264	297.143	0.0000144951
10.5400	219.640	24322.7	0.385778	297.099	0.0000144915
10.5500	219.575	24284.9	0.385293	297.055	0.0000144878
10.5600	219.510	24247.1	0.384807	297.011	0.0000144841
10.5700	219.445	24209.4	0.384323	296.967	0.0000144805
10.5800	219.380	24171.7	0.383838	296.923	0.0000144768
10.5900	219.315	24134.1	0.383355	296.879	0.0000144732
10.6000	219.250	24096.5	0.382871	296.835	0.0000144695
10.6100	219.185	24059.0	0.382389	296.791	0.0000144658
10.6200	219.120	24021.5	0.381906	296.747	0.0000144622
10.6300	219.055	23984.1	0.381424	296.703	0.0000144585
10.6400	218.990	23946.7	0.380943	296.659	0.0000144548
10.6500	218.925	23909.4	0.380462	296.615	0.0000144512
10.6600	218.860	23872.1	0.379981	296.571	0.0000144475
10.6700	218.795	23834.9	0.379501	296.527	0.0000144438
10.6800	218.730	23797.7	0.379022	296.483	0.0000144402
10.6900	218.665	23760.5	0.378543	296.439	0.0000144365
10.7000	218.600	23723.4	0.378064	296.395	0.0000144328
10.7100	218.535	23686.4	0.377586	296.350	0.0000144292
10.7200	218.470	23649.4	0.377108	296.306	0.0000144255
10.7300	218.405	23612.4	0.376631	296.262	0.0000144218
10.7400	218.340	23575.5	0.376154	296.218	0.0000144182
10.7500	218.275	23538.6	0.375677	296.174	0.0000144145
10.7600	218.210	23501.8	0.375202	296.130	0.0000144108
10.7700	218.145	23465.0	0.374726	296.086	0.0000144072
10.7800	218.080	23428.3	0.374251	296.042	0.0000144035
10.7900	218.015	23391.6	0.373777	295.998	0.0000143998
10.8000	217.950	23355.0	0.373303	295.954	0.0000143962
10.8100	217.885	23318.4	0.372829	295.909	0.0000143925
10.8200	217.820	23281.9	0.372356	295.865	0.0000143888
10.8300	217.755	23245.4	0.371883	295.821	0.0000143851
10.8400	217.690	23208.9	0.371411	295.777	0.0000143815
10.8500	217.625	23172.5	0.370939	295.733	0.0000143778
10.8600	217.560	23136.2	0.370468	295.689	0.0000143741
10.8700	217.495	23099.9	0.369997	295.644	0.0000143704
10.8800	217.430	23063.6	0.369527	295.600	0.0000143668
10.8900	217.365	23027.4	0.369057	295.556	0.0000143631
10.9000	217.300	22991.2	0.368588	295.512	0.0000143594
10.9100	217.235	22955.1	0.368119	295.468	0.0000143557
10.9200	217.170	22919.0	0.367650	295.423	0.0000143521
10.9300	217.105	22883.0	0.367182	295.379	0.0000143484
10.9400	217.040	22847.0	0.366714	295.335	0.0000143447
10.9500	216.975	22811.1	0.366247	295.291	0.0000143410
10.9600	216.910	22775.2	0.365780	295.247	0.0000143374
10.9700	216.845	22739.3	0.365314	295.202	0.0000143337
10.9800	216.780	22703.5	0.364848	295.158	0.0000143300
10.9900	216.715	22667.8	0.364383	295.114	0.0000143263
11.0000	216.650	22632.1	0.363918	295.070	0.0000143226
11.0100	216.650	22596.4	0.363345	295.070	0.0000143226
11.0200	216.650	22560.8	0.362772	295.070	0.0000143226
11.0300	216.650	22525.3	0.362201	295.070	0.0000143226
11.0400	216.650	22489.8	0.361630	295.070	0.0000143226
11.0500	216.650	22454.3	0.361060	295.070	0.0000143226
11.0600	216.650	22418.9	0.360491	295.070	0.0000143226
11.0700	216.650	22383.6	0.359923	295.070	0.0000143226
11.0800	216.650	22348.4	0.359356	295.070	0.0000143226
11.0900	216.650	22313.1	0.358790	295.070	0.0000143226
11.1000	216.650	22278.0	0.358224	295.070	0.0000143226
11.1100	216.650	22242.9	0.357660	295.070	0.0000143226
11.1200	216.650	22207.8	0.357096	295.070	0.0000143226
11.1300	216.650	22172.8	0.356534	295.070	0.0000143226
11.1400	216.650	22137.9	0.355972	295.070	0.0000143226
11.1500	216.650	22103.0	0.355411	295.070	0.0000143226
11.1600	216.650	22068.2	0.354851	295.070	0.0000143226
11.1700	216.650	22033.4	0.354292	295.070	0.0000143226
11.1800	216.650	21998.7	0.353734	295.070	0.0000143226
11.1900	216.650	21964.0	0.353176	295.070	0.0000143226
11.2000	216.650	21929.4	0.352620	295.070	0.0000143226
11.2100	216.650	21894.9	0.352064	295.070	0.0000143226
11.2200	216.650	21860.4	0.351510	295.070	0.0000143226
11.2300	216.650	21825.9	0.350956	295.070	0.0000143226
11.2400	216.650	21791.6	0.350403	295.070	0.0000143226
11.2500	216.650	21757.2	0.349851	295.070	0.0000143226
11.2600	216.650	21722.9	0.349299	295.070	0.0000143226
11.2700	216.650	21688.7	0.348749	295.070	0.0000143226
11.2800	216.650	21654.5	0.348200	295.070	0.0000143226
11.2900	216.650	21620.4	0.347651	295.070	0.0000143226
11.3000	216.650	21586.3	0.347103	295.070	0.0000143226
11.3100	216.650	21552.3	0.346556	295.070	0.0000143226
11.3200	216.650	21518.4	0.346010	295.070	0.0000143226
11.3300	216.650	21484.5	0.345465	295.070	0.0000143226
11.3400	216.650	21450.6	0.344921	295.070	0.0000143226
11.3500	216.650	21416.8	0.344377	295.070	0.0000143226
11.3600	216.650	21383.1	0.343835	295.070	0.0000143226
11.3700	216.650	21349.4	0.343293	295.070	0.0000143226
11.3800	216.650	21315.7	0.342752	295.070	0.0000143226
11.3900	216.650	21282.2	0.342212	295.070	0.0000143226
11.4000	216.650	21248.6	0.341673	295.070	0.0000143226
11.4100	216.650	21215.1	0.341134	295.070	0.0000143226
11.4200	216.650	21181.7	0.340597	295.070	0.0000143226
11.4300	216.650	21148.3	0.340060	295.070	0.0000143226
11.4400	216.650	21115.0	0.339524	295.070	0.0000143226
11.4500	216.650	21081.8	0.338989	295.070	0.0000143226
11.4600	216.650	21048.5	0.338455	295.070	0.0000143226
11.4700	216.650	21015.4	0.337922	295.070	0.0000143226
11.4800	216.650	20982.3	0.337390	295.070	0.0000143226
11.4900	216.650	20949.2	0.336858	295.070	0.0000143226
11.5000	216.650	20916.2	0.336327	295.070	0.0000143226
11.5100	216.650	20883.2	0.335797	295.070	0.0000143226
11.5200	216.650	20850.3	0.335268	295.070	0.0000143226
11.5300	216.650	20817.5	0.334740	295.070	0.0000143226
11.5400	216.650	20784.7	0.334212	295.070	0.0000143226
11.5500	216.650	20751.9	0.333686	295.070	0.0000143226
11.5600	216.650	20719.2	0.333160	295.070	0.0000143226
11.5700	216.650	20686.6	0.332635	295.070	0.0000143226
11.5800	216.650	20654.0	0.332111	295.070	0.0000143226
11.5900	216.650	20621.4	0.331588	295.070	0.0000143226
11.6000	216.650	20589.0	0.331065	295.070	0.0000143226
11.6100	216.650	20556.5	0.330544	295.070	0.0000143226
11.6200	216.650	20524.1	0.330023	295.070	0.0000143226
11.6300	216.650	20491.8	0.329503	295.070	0.0000143226
11.6400	216.650	20459.5	0.328984	295.070	0.0000143226
11.6500	216.650	20427.3	0.328465	295.070	0.0000143226
11.6600	216.650	20395.1	0.327948	295.070	0.0000143226
11.6700	216.650	20362.9	0.327431	295.070	0.0000143226
11.6800	216.650	20330.9	0.326915	295.070	0.0000143226
11.6900	216.650	20298.8	0.326400	295.070	0.0000143226
11.7000	216.650	20266.8	0.325886	295.070	0.0000143226
11.7100	216.650	20234.9	0.325372	295.070	0.0000143226
11.7200	216.650	20203.0	0.324860	295.070	0.0000143226
11.7300	216.650	20171.2	0.324348	295.070	0.0000143226
11.7400	216.650	20139.4	0.323837	295.070	0.0000143226
11.7500	216.650	20107.7	0.323326	295.070	0.0000143226
11.7600	216.650	20076.0	0.322817	295.070	0.0000143226
11.7700	216.650	20044.4	0.322308	295.070	0.0000143226
11.7800	216.650	20012.8	0.321800	295.070	0.0000143226
11.7900	216.650	19981.2	0.321293	295.070	0.0000143226
11.8000	216.650	19949.8	0.320787	295.070	0.0000143226
11.8100	216.650	19918.3	0.320282	295.070	0.0000143226
11.8200	216.650	19886.9	0.319777	295.070	0.0000143226
11.8300	216.650	19855.6	0.319273	295.070	0.0000143226
11.8400	216.650	19824.3	0.318770	295.070	0.0000143226
11.8500	216.650	19793.1	0.318268	295.070	0.0000143226
11.8600	216.650	19761.9	0.317766	295.070	0.0000143226
11.8700	216.650	19730.8	0.317266	295.070	0.0000143226
11.8800	216.650	19699.7	0.316766	295.070	0.0000143226
11.8900	216.650	19668.6	0.316267	295.070	0.0000143226
11.9000	216.650	19637.6	0.315768	295.070	0.0000143226
11.9100	216.650	19606.7	0.315271	295.070	0.0000143226
11.9200	216.650	19575.8	0.314774	295.070	0.0000143226
11.9300	216.650	19545.0	0.314278	295.070	0.0000143226
11.9400	216.650	19514.2	0.313783	295.070	0.0000143226
11.9500	216.650	19483.4	0.313289	295.070	0.0000143226
11.9600	216.650	19452.7	0.312795	295.070	0.0000143226
11.9700	216.650	19422.1	0.312302	295.070	0.0000143226
11.9800	216.650	19391.5	0.311810	295.070	0.0000143226
11.9900	216.650	19360.9	0.311319	295.070	0.0000143226
12.0000	216.650	19330.4	0.310828	295.070	0.0000143226
12.0100	216.650	19299.9	0.310338	295.070	0.0000143226
12.0200	216.650	19269.5	0.309849	295.070	0.0000143226
12.0300	216.650	19239.2	0.309361	295.070	0.0000143226
12.0400	216.650	19208.9	0.308874	295.070	0.0000143226
12.0500	216.650	19178.6	0.308387	295.070	0.0000143226
12.0600	216.650	19148.4	0.307901	295.070	0.0000143226
12.0700	216.650	19118.2	0.307416	295.070	0.0000143226
12.0800	216.650	19088.1	0.306932	295.070	0.0000143226
12.0900	216.650	19058.0	0.306448	295.070	0.0000143226
12.1000	216.650	19028.0	0.305965	295.070	0.0000143226
12.1100	216.650	18998.0	0.305483	295.070	0.0000143226
12.1200	216.650	18968.1	0.305002	295.070	0.0000143226
12.1300	216.650	18938.2	0.304521	295.070	0.0000143226
12.1400	216.650	18908.3	0.304041	295.070	0.0000143226
12.1500	216.650	18878.5	0.303562	295.070	0.0000143226
12.1600	216.650	18848.8	0.303084	295.070	0.0000143226
12.1700	216.650	18819.1	0.302606	295.070	0.0000143226
12.1800	216.650	18789.4	0.302130	295.070	0.0000143226
12.1900	216.650	18759.8	0.301654	295.070	0.0000143226
12.2000	216.650	18730.3	0.301178	295.070	0.0000143226
12.2100	216.650	18700.8	0.300704	295.070	0.0000143226
12.2200	216.650	18671.3	0.300230	295.070	0.0000143226
12.2300	216.650	18641.9	0.299757	295.070	0.0000143226
12.2400	216.650	18612.5	0.299285	295.070	0.0000143226
12.2500	216.650	18583.2	0.298813	295.070	0.0000143226
12.2600	216.650	18553.9	0.298342	295.070	0.0000143226
12.2700	216.650	18524.7	0.297872	295.070	0.0000143226
12.2800	216.650	18495.5	0.297403	295.070	0.0000143226
12.2900	216.650	18466.3	0.296934	295.070	0.0000143226
12.3000	216.650	18437.2	0.296466	295.070	0.0000143226
12.3100	216.650	18408.2	0.295999	295.070	0.0000143226
12.3200	216.650	18379.2	0.295533	295.070	0.0000143226
12.3300	216.650	18350.2	0.295067	295.070	0.0000143226
12.3400	216.650	18321.3	0.294602	295.070	0.0000143226
12.3500	216.650	18292.4	0.294138	295.070	0.0000143226
12.3600	216.650	18263.6	0.293675	295.070	0.0000143226
12.3700	216.650	18234.8	0.293212	295.070	0.0000143226
12.3800	216.650	18206.1	0.292750	295.070	0.0000143226
12.3900	216.650	18177.4	0.292289	295.070	0.0000143226
12.4000	216.650	18148.8	0.291828	295.070	0.0000143226
12.4100	216.650	18120.2	0.291368	295.070	0.0000143226
12.4200	216.650	18091.6	0.290909	295.070	0.0000143226
12.4300	216.650	18063.1	0.290451	295.070	0.0000143226
12.4400	216.650	18034.7	0.289993	295.070	0.0000143226
12.4500	216.650	18006.3	0.289536	295.070	0.0000143226
12.4600	216.650	17977.9	0.289080	295.070	0.0000143226
12.4700	216.650	17949.6	0.288625	295.070	0.0000143226
12.4800	216.650	17921.3	0.288170	295.070	0.0000143226
12.4900	216.650	17893.0	0.287716	295.070	0.0000143226
12.5000	216.650	17864.8	0.287262	295.070	0.0000143226
12.5100	216.650	17836.7	0.286810	295.070	0.0000143226
12.5200	216.650	17808.6	0.286358	295.070	0.0000143226
12.5300	216.650	17780.5	0.285907	295.070	0.0000143226
12.5400	216.650	17752.5	0.285456	295.070	0.0000143226
12.5500	216.650	17724.5	0.285006	295.070	0.0000143226
12.5600	216.650	17696.6	0.284557	295.070	0.0000143226
12.5700	216.650	17668.7	0.284109	295.070	0.0000143226
12.5800	216.650	17640.9	0.283661	295.070	0.0000143226
12.5900	216.650	17613.1	0.283214	295.070	0.0000143226
12.6000	216.650	17585.4	0.282768	295.070	0.0000143226
12.6100	216.650	17557.6	0.282323	295.070	0.0000143226
12.6200	216.650	17530.0	0.281878	295.070	0.0000143226
12.6300	216.650	17502.4	0.281434	295.070	0.0000143226
12.6400	216.650	17474.8	0.280990	295.070	0.0000143226
12.6500	216.650	17447.2	0.280547	295.070	0.0000143226
12.6600	216.650	17419.8	0.280105	295.070	0.0000143226
12.6700	216.650	17392.3	0.279664	295.070	0.0000143226
12.6800	216.650	17364.9	0.279223	295.070	0.0000143226
12.6900	216.650	17337.5	0.278783	295.070	0.0000143226
12.7000	216.650	17310.2	0.278344	295.070	0.0000143226
12.7100	216.650	17283.0	0.277906	295.070	0.0000143226
12.7200	216.650	17255.7	0.277468	295.070	0.0000143226
12.7300	216.650	17228.5	0.277031	295.070	0.0000143226
12.7400	216.650	17201.4	0.276594	295.070	0.0000143226
12.7500	216.650	17174.3	0.276158	295.070	0.0000143226
12.7600	216.650	17147.2	0.275723	295.070	0.0000143226
12.7700	216.650	17120.2	0.275289	295.070	0.0000143226
12.7800	216.650	17093.2	0.274855	295.070	0.0000143226
12.7900	216.650	17066.3	0.274422	295.070	0.0000143226
12.8000	216.650	17039.4	0.273989	295.070	0.0000143226
12.8100	216.650	17012.6	0.273558	295.070	0.0000143226
12.8200	216.650	16985.7	0.273127	295.070	0.0000143226
12.8300	216.650	16959.0	0.272696	295.070	0.0000143226
12.8400	216.650	16932.3	0.272267	295.070	0.0000143226
12.8500	216.650	16905.6	0.271838	295.070	0.0000143226
12.8600	216.650	16878.9	0.271409	295.070	0.0000143226
12.8700	216.650	16852.4	0.270982	295.070	0.0000143226
12.8800	216.650	16825.8	0.270555	295.070	0.0000143226
12.8900	216.650	16799.3	0.270128	295.070	0.0000143226
12.9000	216.650	16772.8	0.269703	295.070	0.0000143226
12.9100	216.650	16746.4	0.269278	295.070	0.0000143226
12.9200	216.650	16720.0	0.268854	295.070	0.0000143226
12.9300	216.650	16693.7	0.268430	295.070	0.0000143226
12.9400	216.650	16667.4	0.268007	295.070	0.0000143226
12.9500	216.650	16641.1	0.267585	295.070	0.0000143226
12.9600	216.650	16614.9	0.267163	295.070	0.0000143226
12.9700	216.650	16588.7	0.266742	295.070	0.0000143226
12.9800	216.650	16562.6	0.266322	295.070	0.0000143226
12.9900	216.650	16536.5	0.265902	295.070	0.0000143226
13.0000	216.650	16510.4	0.265483	295.070	0.0000143226
13.0100	216.650	16484.4	0.265065	295.070	0.0000143226
13.0200	216.650	16458.4	0.264647	295.070	0.0000143226
13.0300	216.650	16432.5	0.264230	295.070	0.0000143226
13.0400	216.650	16406.6	0.263814	295.070	0.0000143226
13.0500	216.650	16380.7	0.263398	295.070	0.0000143226
13.0600	216.650	16354.9	0.262983	295.070	0.0000143226
13.0700	216.650	16329.2	0.262569	295.070	0.0000143226
13.0800	216.650	16303.4	0.262155	295.070	0.0000143226
13.0900	216.650	16277.7	0.261742	295.070	0.0000143226
13.1000	216.650	16252.1	0.261330	295.070	0.0000143226
13.1100	216.650	16226.5	0.260918	295.070	0.0000143226
13.1200	216.650	16200.9	0.260507	295.070	0.0000143226
13.1300	216.650	16175.4	0.260096	295.070	0.0000143226
13.1400	216.650	16149.9	0.259687	295.070	0.0000143226
13.1500	216.650	16124.5	0.259277	295.070	0.0000143226
13.1600	216.650	16099.1	0.258869	295.070	0.0000143226
13.1700	216.650	16073.7	0.258461	295.070	0.0000143226
13.1800	216.650	16048.4	0.258054	295.070	0.0000143226
13.1900	216.650	16023.1	0.257647	295.070	0.0000143226
13.2000	216.650	15997.8	0.257241	295.070	0.0000143226
13.2100	216.650	15972.6	0.256836	295.070	0.0000143226
13.2200	216.650	15947.5	0.256431	295.070	0.0000143226
13.2300	216.650	15922.3	0.256027	295.070	0.0000143226
13.2400	216.650	15897.2	0.255624	295.070	0.0000143226
13.2500	216.650	15872.2	0.255221	295.070	0.0000143226
13.2600	216.650	15847.2	0.254819	295.070	0.0000143226
13.2700	216.650	15822.2	0.254417	295.070	0.0000143226
13.2800	216.650	15797.3	0.254016	295.070	0.0000143226
13.2900	216.650	15772.4	0.253616	295.070	0.0000143226
13.3000	216.650	15747.5	0.253217	295.070	0.0000143226
13.3100	216.650	15722.7	0.252818	295.070	0.0000143226
13.3200	216.650	15698.0	0.252419	295.070	0.0000143226
13.3300	216.650	15673.2	0.252022	295.070	0.0000143226
13.3400	216.650	15648.5	0.251624	295.070	0.0000143226
13.3500	216.650	15623.9	0.251228	295.070	0.0000143226
13.3600	216.650	15599.3	0.250832	295.070	0.0000143226
13.3700	216.650	15574.7	0.250437	295.070	0.0000143226
13.3800	216.650	15550.1	0.250042	295.070	0.0000143226
13.3900	216.650	15525.6	0.249648	295.070	0.0000143226
13.4000	216.650	15501.2	0.249255	295.070	0.0000143226
13.4100	216.650	15476.7	0.248862	295.070	0.0000143226
13.4200	216.650	15452.4	0.248470	295.070	0.0000143226
13.4300	216.650	15428.0	0.248079	295.070	0.0000143226
13.4400	216.650	15403.7	0.247688	295.070	0.0000143226
13.4500	216.650	15379.4	0.247297	295.070	0.0000143226
13.4600	216.650	15355.2	0.246908	295.070	0.0000143226
13.4700	216.650	15331.0	0.246519	295.070	0.0000143226
13.4800	216.650	15306.8	0.246130	295.070	0.0000143226
13.4900	216.650	15282.7	0.245743	295.070	0.0000143226
13.5000	216.650	15258.7	0.245355	295.070	0.0000143226
13.5100	216.650	15234.6	0.244969	295.070	0.0000143226
13.5200	216.650	15210.6	0.244583	295.070	0.0000143226
13.5300	216.650	15186.6	0.244197	295.070	0.0000143226
13.5400	216.650	15162.7	0.243813	295.070	0.0000143226
13.5500	216.650	15138.8	0.243428	295.070	0.0000143226
13.5600	216.650	15115.0	0.243045	295.070	0.0000143226
13.5700	216.650	15091.1	0.242662	295.070	0.0000143226
13.5800	216.650	15067.4	0.242280	295.070	0.0000143226
13.5900	216.650	15043.6	0.241898	295.070	0.0000143226
13.6000	216.650	15019.9	0.241517	295.070	0.0000143226
13.6100	216.650	14996.3	0.241136	295.070	0.0000143226
13.6200	216.650	14972.6	0.240756	295.070	0.0000143226
13.6300	216.650	14949.0	0.240377	295.070	0.0000143226
13.6400	216.650	14925.5	0.239998	295.070	0.0000143226
13.6500	216.650	14902.0	0.239620	295.070	0.0000143226
13.6600	216.650	14878.5	0.239242	295.070	0.0000143226
13.6700	216.650	14855.0	0.238865	295.070	0.0000143226
13.6800	216.650	14831.6	0.238489	295.070	0.0000143226
13.6900	216.650	14808.3	0.238113	295.070	0.0000143226
13.7000	216.650	14784.9	0.237738	295.070	0.0000143226
13.7100	216.650	14761.6	0.237364	295.070	0.0000143226
13.7200	216.650	14738.4	0.236990	295.070	0.0000143226
13.7300	216.650	14715.2	0.236616	295.070	0.0000143226
13.7400	216.650	14692.0	0.236243	295.070	0.0000143226
13.7500	216.650	14668.8	0.235871	295.070	0.0000143226
13.7600	216.650	14645.7	0.235499	295.070	0.0000143226
13.7700	216.650	14622.6	0.235128	295.070	0.0000143226
13.7800	216.650	14599.6	0.234758	295.070	0.0000143226
13.7900	216.650	14576.6	0.234388	295.070	0.0000143226
13.8000	216.650	14553.6	0.234019	295.070	0.0000143226
13.8100	216.650	14530.7	0.233650	295.070	0.0000143226
13.8200	216.650	14507.8	0.233282	295.070	0.0000143226
13.8300	216.650	14484.9	0.232914	295.070	0.0000143226
13.8400	216.650	14462.1	0.232547	295.070	0.0000143226
13.8500	216.650	14439.3	0.232181	295.070	0.0000143226
13.8600	216.650	14416.6	0.231815	295.070	0.0000143226
13.8700	216.650	14393.9	0.231450	295.070	0.0000143226
13.8800	216.650	14371.2	0.231085	295.070	0.0000143226
13.8900	216.650	14348.5	0.230721	295.070	0.0000143226
13.9000	216.650	14325.9	0.230357	295.070	0.0000143226
13.9100	216.650	14303.4	0.229994	295.070	0.0000143226
13.9200	216.650	14280.8	0.229632	295.070	0.0000143226
13.9300	216.650	14258.3	0.229270	295.070	0.0000143226
13.9400	216.650	14235.9	0.228909	295.070	0.0000143226
13.9500	216.650	14213.4	0.228548	295.070	0.0000143226
13.9600	216.650	14191.0	0.228188	295.070	0.0000143226
13.9700	216.650	14168.7	0.227829	295.070	0.0000143226
13.9800	216.650	14146.3	0.227470	295.070	0.0000143226
13.9900	216.650	14124.1	0.227111	295.070	0.0000143226
14.0000	216.650	14101.8	0.226753	295.070	0.0000143226
14.0100	216.650	14079.6	0.226396	295.070	0.0000143226
14.0200	216.650	14057.4	0.226039	295.070	0.0000143226
14.0300	216.650	14035.2	0.225683	295.070	0.0000143226
14.0400	216.650	14013.1	0.225328	295.070	0.0000143226
14.0500	216.650	13991.1	0.224973	295.070	0.0000143226
14.0600	216.650	13969.0	0.224618	295.070	0.0000143226
14.0700	216.650	13947.0	0.224264	295.070	0.0000143226
14.0800	216.650	13925.0	0.223911	295.070	0.0000143226
14.0900	216.650	13903.1	0.223558	295.070	0.0000143226
14.1000	216.650	13881.2	0.223206	295.070	0.0000143226
14.1100	216.650	13859.3	0.222854	295.070	0.0000143226
14.1200	216.650	13837.5	0.222503	295.070	0.0000143226
14.1300	216.650	13815.7	0.222152	295.070	0.0000143226
14.1400	216.650	13793.9	0.221802	295.070	0.0000143226
14.1500	216.650	13772.2	0.221453	295.070	0.0000143226
14.1600	216.650	13750.5	0.221104	295.070	0.0000143226
14.1700	216.650	13728.8	0.220756	295.070	0.0000143226
14.1800	216.650	13707.2	0.220408	295.070	0.0000143226
14.1900	216.650	13685.6	0.220061	295.070	0.0000143226
14.2000	216.650	13664.0	0.219714	295.070	0.0000143226
14.2100	216.650	13642.5	0.219368	295.070	0.0000143226
14.2200	216.650	13621.0	0.219022	295.070	0.0000143226
14.2300	216.650	13599.5	0.218677	295.070	0.0000143226
14.2400	216.650	13578.1	0.218332	295.070	0.0000143226
14.2500	216.650	13556.7	0.217988	295.070	0.0000143226
14.2600	216.650	13535.3	0.217645	295.070	0.0000143226
14.2700	216.650	13514.0	0.217302	295.070	0.0000143226
14.2800	216.650	13492.7	0.216959	295.070	0.0000143226
14.2900	216.650	13471.5	0.216618	295.070	0.0000143226
14.3000	216.650	13450.2	0.216276	295.070	0.0000143226
14.3100	216.650	13429.0	0.215936	295.070	0.0000143226
14.3200	216.650	13407.9	0.215595	295.070	0.0000143226
14.3300	216.650	13386.7	0.215256	295.070	0.0000143226
14.3400	216.650	13365.7	0.214916	295.070	0.0000143226
14.3500	216.650	13344.6	0.214578	295.070	0.0000143226
14.3600	216.650	13323.6	0.214240	295.070	0.0000143226
14.3700	216.650	13302.6	0.213902	295.070	0.0000143226
14.3800	216.650	13281.6	0.213565	295.070	0.0000143226
14.3900	216.650	13260.7	0.213229	295.070	0.0000143226
14.4000	216.650	13239.8	0.212893	295.070	0.0000143226
14.4100	216.650	13218.9	0.212557	295.070	0.0000143226
14.4200	216.650	13198.1	0.212222	295.070	0.0000143226
14.4300	216.650	13177.3	0.211888	295.070	0.0000143226
14.4400	216.650	13156.5	0.211554	295.070	0.0000143226
14.4500	216.650	13135.8	0.211221	295.070	0.0000143226
14.4600	216.650	13115.1	0.210888	295.070	0.0000143226
14.4700	216.650	13094.5	0.210556	295.070	0.0000143226
14.4800	216.650	13073.8	0.210224	295.070	0.0000143226
14.4900	216.650	13053.2	0.209893	295.070	0.0000143226
14.5000	216.650	13032.7	0.209562	295.070	0.0000143226
14.5100	216.650	13012.1	0.209232	295.070	0.0000143226
14.5200	216.650	12991.6	0.208902	295.070	0.0000143226
14.5300	216.650	12971.1	0.208573	295.070	0.0000143226
14.5400	216.650	12950.7	0.208244	295.070	0.0000143226
14.5500	216.650	12930.3	0.207916	295.070	0.0000143226
14.5600	216.650	12909.9	0.207589	295.070	0.0000143226
14.5700	216.650	12889.6	0.207261	295.070	0.0000143226
14.5800	216.650	12869.3	0.206935	295.070	0.0000143226
14.5900	216.650	12849.0	0.206609	295.070	0.0000143226
14.6000	216.650	12828.8	0.206283	295.070	0.0000143226
14.6100	216.650	12808.5	0.205958	295.070	0.0000143226
14.6200	216.650	12788.4	0.205634	295.070	0.0000143226
14.6300	216.650	12768.2	0.205310	295.070	0.0000143226
14.6400	216.650	12748.1	0.204986	295.070	0.0000143226
14.6500	216.650	12728.0	0.204663	295.070	0.0000143226
14.6600	216.650	12708.0	0.204341	295.070	0.0000143226
14.6700	216.650	12687.9	0.204019	295.070	0.0000143226
14.6800	216.650	12667.9	0.203697	295.070	0.0000143226
14.6900	216.650	12648.0	0.203376	295.070	0.0000143226
14.7000	216.650	12628.1	0.203056	295.070	0.0000143226
14.7100	216.650	12608.2	0.202736	295.070	0.0000143226
14.7200	216.650	12588.3	0.202417	295.070	0.0000143226
14.7300	216.650	12568.5	0.202098	295.070	0.0000143226
14.7400	216.650	12548.6	0.201779	295.070	0.0000143226
14.7500	216.650	12528.9	0.201461	295.070	0.0000143226
14.7600	216.650	12509.1	0.201144	295.070	0.0000143226
14.7700	216.650	12489.4	0.200827	295.070	0.0000143226
14.7800	216.650	12469.7	0.200510	295.070	0.0000143226
14.7900	216.650	12450.1	0.200195	295.070	0.0000143226
14.8000	216.650	12430.5	0.199879	295.070	0.0000143226
14.8100	216.650	12410.9	0.199564	295.070	0.0000143226
14.8200	216.650	12391.3	0.199250	295.070	0.0000143226
14.8300	216.650	12371.8	0.198936	295.070	0.0000143226
14.8400	216.650	12352.3	0.198622	295.070	0.0000143226
14.8500	216.650	12332.9	0.198309	295.070	0.0000143226
14.8600	216.650	12313.4	0.197997	295.070	0.0000143226
14.8700	216.650	12294.0	0.197685	295.070	0.0000143226
14.8800	216.650	12274.7	0.197373	295.070	0.0000143226
14.8900	216.650	12255.3	0.197062	295.070	0.0000143226
14.9000	216.650	12236.0	0.196752	295.070	0.0000143226
14.9100	216.650	12216.7	0.196442	295.070	0.0000143226
14.9200	216.650	12197.5	0.196132	295.070	0.0000143226
14.9300	216.650	12178.3	0.195823	295.070	0.0000143226
14.9400	216.650	12159.1	0.195515	295.070	0.0000143226
14.9500	216.650	12139.9	0.195207	295.070	0.0000143226
14.9600	216.650	12120.8	0.194899	295.070	0.0000143226
14.9700	216.650	12101.7	0.194592	295.070	0.0000143226
14.9800	216.650	12082.6	0.194286	295.070	0.0000143226
14.9900	216.650	12063.6	0.193979	295.070	0.0000143226
15.0000	216.650	12044.6	0.193674	295.070	0.0000143226
15.0100	216.650	12025.6	0.193369	295.070	0.0000143226
15.0200	216.650	12006.6	0.193064	295.070	0.0000143226
15.0300	216.650	11987.7	0.192760	295.070	0.0000143226
15.0400	216.650	11968.8	0.192456	295.070	0.0000143226
15.0500	216.650	11950.0	0.192153	295.070	0.0000143226
15.0600	216.650	11931.2	0.191850	295.070	0.0000143226
15.0700	216.650	11912.4	0.191548	295.070	0.0000143226
15.0800	216.650	11893.6	0.191246	295.070	0.0000143226
15.0900	216.650	11874.8	0.190945	295.070	0.0000143226
15.1000	216.650	11856.1	0.190644	295.070	0.0000143226
15.1100	216.650	11837.5	0.190343	295.070	0.0000143226
15.1200	216.650	11818.8	0.190043	295.070	0.0000143226
15.1300	216.650	11800.2	0.189744	295.070	0.0000143226
15.1400	216.650	11781.6	0.189445	295.070	0.0000143226
15.1500	216.650	11763.0	0.189146	295.070	0.0000143226
15.1600	216.650	11744.5	0.188848	295.070	0.0000143226
15.1700	216.650	11726.0	0.188551	295.070	0.0000143226
15.1800	216.650	11707.5	0.188254	295.070	0.0000143226
15.1900	216.650	11689.1	0.187957	295.070	0.0000143226
15.2000	216.650	11670.6	0.187661	295.070	0.0000143226
15.2100	216.650	11652.3	0.187365	295.070	0.0000143226
15.2200	216.650	11633.9	0.187070	295.070	0.0000143226
15.2300	216.650	11615.6	0.186775	295.070	0.0000143226
15.2400	216.650	11597.3	0.186481	295.070	0.0000143226
15.2500	216.650	11579.0	0.186187	295.070	0.0000143226
15.2600	216.650	11560.7	0.185894	295.070	0.0000143226
15.2700	216.650	11542.5	0.185601	295.070	0.0000143226
15.2800	216.650	11524.3	0.185309	295.070	0.0000143226
15.2900	216.650	11506.2	0.185017	295.070	0.0000143226
15.3000	216.650	11488.1	0.184725	295.070	0.0000143226
15.3100	216.650	11470.0	0.184434	295.070	0.0000143226
15.3200	216.650	11451.9	0.184143	295.070	0.0000143226
15.3300	216.650	11433.8	0.183853	295.070	0.0000143226
15.3400	216.650	11415.8	0.183564	295.070	0.0000143226
15.3500	216.650	11397.8	0.183274	295.070	0.0000143226
15.3600	216.650	11379.9	0.182986	295.070	0.0000143226
15.3700	216.650	11361.9	0.182697	295.070	0.0000143226
15.3800	216.650	11344.0	0.182409	295.070	0.0000143226
15.3900	216.650	11326.2	0.182122	295.070	0.0000143226
15.4000	216.650	11308.3	0.181835	295.070	0.0000143226
15.4100	216.650	11290.5	0.181548	295.070	0.0000143226
15.4200	216.650	11272.7	0.181262	295.070	0.0000143226
15.4300	216.650	11254.9	0.180977	295.070	0.0000143226
15.4400	216.650	11237.2	0.180692	295.070	0.0000143226
15.4500	216.650	11219.5	0.180407	295.070	0.0000143226
15.4600	216.650	11201.8	0.180123	295.070	0.0000143226
15.4700	216.650	11184.2	0.179839	295.070	0.0000143226
15.4800	216.650	11166.6	0.179556	295.070	0.0000143226
15.4900	216.650	11149.0	0.179273	295.070	0.0000143226
15.5000	216.650	11131.4	0.178990	295.070	0.0000143226
15.5100	216.650	11113.9	0.178708	295.070	0.0000143226
15.5200	216.650	11096.3	0.178427	295.070	0.0000143226
15.5300	216.650	11078.9	0.178145	295.070	0.0000143226
15.5400	216.650	11061.4	0.177865	295.070	0.0000143226
15.5500	216.650	11044.0	0.177584	295.070	0.0000143226
15.5600	216.650	11026.6	0.177305	295.070	0.0000143226
15.5700	216.650	11009.2	0.177025	295.070	0.0000143226
15.5800	216.650	10991.9	0.176746	295.070	0.0000143226
15.5900	216.650	10974.5	0.176468	295.070	0.0000143226
15.6000	216.650	10957.2	0.176190	295.070	0.0000143226
15.6100	216.650	10940.0	0.175912	295.070	0.0000143226
15.6200	216.650	10922.7	0.175635	295.070	0.0000143226
15.6300	216.650	10905.5	0.175358	295.070	0.0000143226
15.6400	216.650	10888.4	0.175082	295.070	0.0000143226
15.6500	216.650	10871.2	0.174806	295.070	0.0000143226
15.6600	216.650	10854.1	0.174531	295.070	0.0000143226
15.6700	216.650	10837.0	0.174256	295.070	0.0000143226
15.6800	216.650	10819.9	0.173981	295.070	0.0000143226
15.6900	216.650	10802.8	0.173707	295.070	0.0000143226
15.7000	216.650	10785.8	0.173433	295.070	0.0000143226
15.7100	216.650	10768.8	0.173160	295.070	0.0000143226
15.7200	216.650	10751.9	0.172887	295.070	0.0000143226
15.7300	216.650	10734.9	0.172615	295.070	0.0000143226
15.7400	216.650	10718.0	0.172343	295.070	0.0000143226
15.7500	216.650	10701.1	0.172071	295.070	0.0000143226
15.7600	216.650	10684.3	0.171800	295.070	0.0000143226
15.7700	216.650	10667.4	0.171529	295.070	0.0000143226
15.7800	216.650	10650.6	0.171259	295.070	0.0000143226
15.7900	216.650	10633.8	0.170989	295.070	0.0000143226
15.8000	216.650	10617.1	0.170720	295.070	0.0000143226
15.8100	216.650	10600.3	0.170451	295.070	0.0000143226
15.8200	216.650	10583.6	0.170182	295.070	0.0000143226
15.8300	216.650	10567.0	0.169914	295.070	0.0000143226
15.8400	216.650	10550.3	0.169646	295.070	0.0000143226
15.8500	216.650	10533.7	0.169379	295.070	0.0000143226
15.8600	216.650	10517.1	0.169112	295.070	0.0000143226
15.8700	216.650	10500.5	0.168846	295.070	0.0000143226
15.8800	216.650	10484.0	0.168580	295.070	0.0000143226
15.8900	216.650	10467.5	0.168314	295.070	0.0000143226
15.9000	216.650	10451.0	0.168049	295.070	0.0000143226
15.9100	216.650	10434.5	0.167784	295.070	0.0000143226
15.9200	216.650	10418.1	0.167520	295.070	0.0000143226
15.9300	216.650	10401.6	0.167256	295.070	0.0000143226
15.9400	216.650	10385.3	0.166992	295.070	0.0000143226
15.9500	216.650	10368.9	0.166729	295.070	0.0000143226
15.9600	216.650	10352.6	0.166467	295.070	0.0000143226
15.9700	216.650	10336.2	0.166204	295.070	0.0000143226
15.9800	216.650	10320.0	0.165942	295.070	0.0000143226
15.9900	216.650	10303.7	0.165681	295.070	0.0000143226
16.0000	216.650	10287.5	0.165420	295.070	0.0000143226
16.0100	216.650	10271.2	0.165159	295.070	0.0000143226
16.0200	216.650	10255.1	0.164899	295.070	0.0000143226
16.0300	216.650	10238.9	0.164639	295.070	0.0000143226
16.0400	216.650	10222.8	0.164380	295.070	0.0000143226
16.0500	216.650	10206.7	0.164121	295.070	0.0000143226
16.0600	216.650	10190.6	0.163862	295.070	0.0000143226
16.0700	216.650	10174.5	0.163604	295.070	0.0000143226
16.0800	216.650	10158.5	0.163346	295.070	0.0000143226
16.0900	216.650	10142.5	0.163089	295.070	0.0000143226
16.1000	216.650	10126.5	0.162832	295.070	0.0000143226
16.1100	216.650	10110.6	0.162575	295.070	0.0000143226
16.1200	216.650	10094.6	0.162319	295.070	0.0000143226
16.1300	216.650	10078.7	0.162063	295.070	0.0000143226
16.1400	216.650	10062.8	0.161808	295.070	0.0000143226
16.1500	216.650	10047.0	0.161553	295.070	0.0000143226
16.1600	216.650	10031.2	0.161298	295.070	0.0000143226
16.1700	216.650	10015.3	0.161044	295.070	0.0000143226
16.1800	216.650	9999.57	0.160791	295.070	0.0000143226
16.1900	216.650	9983.81	0.160537	295.070	0.0000143226
16.2000	216.650	9968.08	0.160284	295.070	0.0000143226
16.2100	216.650	9952.37	0.160032	295.070	0.0000143226
16.2200	216.650	9936.69	0.159780	295.070	0.0000143226
16.2300	216.650	9921.04	0.159528	295.070	0.0000143226
16.2400	216.650	9905.40	0.159276	295.070	0.0000143226
16.2500	216.650	9889.80	0.159025	295.070	0.0000143226
16.2600	216.650	9874.21	0.158775	295.070	0.0000143226
16.2700	216.650	9858.65	0.158525	295.070	0.0000143226
16.2800	216.650	9843.12	0.158275	295.070	0.0000143226
16.2900	216.650	9827.61	0.158026	295.070	0.0000143226
16.3000	216.650	9812.13	0.157777	295.070	0.0000143226
16.3100	216.650	9796.67	0.157528	295.070	0.0000143226
16.3200	216.650	9781.23	0.157280	295.070	0.0000143226
16.3300	216.650	9765.82	0.157032	295.070	0.0000143226
16.3400	216.650	9750.43	0.156785	295.070	0.0000143226
16.3500	216.650	9735.07	0.156538	295.070	0.0000143226
16.3600	216.650	9719.73	0.156291	295.070	0.0000143226
16.3700	216.650	9704.41	0.156045	295.070	0.0000143226
16.3800	216.650	9689.12	0.155799	295.070	0.0000143226
16.3900	216.650	9673.86	0.155553	295.070	0.0000143226
16.4000	216.650	9658.61	0.155308	295.070	0.0000143226
16.4100	216.650	9643.40	0.155063	295.070	0.0000143226
16.4200	216.650	9628.20	0.154819	295.070	0.0000143226
16.4300	216.650	9613.03	0.154575	295.070	0.0000143226
16.4400	216.650	9597.88	0.154332	295.070	0.0000143226
16.4500	216.650	9582.76	0.154088	295.070	0.0000143226
16.4600	216.650	9567.66	0.153846	295.070	0.0000143226
16.4700	216.650	9552.59	0.153603	295.070	0.0000143226
16.4800	216.650	9537.54	0.153361	295.070	0.0000143226
16.4900	216.650	9522.51	0.153120	295.070	0.0000143226
16.5000	216.650	9507.50	0.152878	295.070	0.0000143226
16.5100	216.650	9492.52	0.152637	295.070	0.0000143226
16.5200	216.650	9477.57	0.152397	295.070	0.0000143226
16.5300	216.650	9462.63	0.152157	295.070	0.0000143226
16.5400	216.650	9447.72	0.151917	295.070	0.0000143226
16.5500	216.650	9432.84	0.151678	295.070	0.0000143226
16.5600	216.650	9417.97	0.151439	295.070	0.0000143226
16.5700	216.650	9403.14	0.151200	295.070	0.0000143226
16.5800	216.650	9388.32	0.150962	295.070	0.0000143226
16.5900	216.650	9373.53	0.150724	295.070	0.0000143226
16.6000	216.650	9358.76	0.150487	295.070	0.0000143226
16.6100	216.650	9344.01	0.150249	295.070	0.0000143226
16.6200	216.650	9329.29	0.150013	295.070	0.0000143226
16.6300	216.650	9314.59	0.149776	295.070	0.0000143226
16.6400	216.650	9299.91	0.149540	295.070	0.0000143226
16.6500	216.650	9285.26	0.149305	295.070	0.0000143226
16.6600	216.650	9270.63	0.149069	295.070	0.0000143226
16.6700	216.650	9256.02	0.148835	295.070	0.0000143226
16.6800	216.650	9241.44	0.148600	295.070	0.0000143226
16.6900	216.650	9226.88	0.148366	295.070	0.0000143226
16.7000	216.650	9212.34	0.148132	295.070	0.0000143226
16.7100	216.650	9197.82	0.147899	295.070	0.0000143226
16.7200	216.650	9183.33	0.147666	295.070	0.0000143226
16.7300	216.650	9168.86	0.147433	295.070	0.0000143226
16.7400	216.650	9154.41	0.147201	295.070	0.0000143226
16.7500	216.650	9139.99	0.146969	295.070	0.0000143226
16.7600	216.650	9125.59	0.146737	295.070	0.0000143226
16.7700	216.650	9111.21	0.146506	295.070	0.0000143226
16.7800	216.650	9096.85	0.146275	295.070	0.0000143226
16.7900	216.650	9082.52	0.146045	295.070	0.0000143226
16.8000	216.650	9068.21	0.145815	295.070	0.0000143226
16.8100	216.650	9053.92	0.145585	295.070	0.0000143226
16.8200	216.650	9039.66	0.145355	295.070	0.0000143226
16.8300	216.650	9025.41	0.145126	295.070	0.0000143226
16.8400	216.650	9011.19	0.144898	295.070	0.0000143226
16.8500	216.650	8996.99	0.144669	295.070	0.0000143226
16.8600	216.650	8982.82	0.144441	295.070	0.0000143226
16.8700	216.650	8968.66	0.144214	295.070	0.0000143226
16.8800	216.650	8954.53	0.143987	295.070	0.0000143226
16.8900	216.650	8940.42	0.143760	295.070	0.0000143226
16.9000	216.650	8926.34	0.143533	295.070	0.0000143226
16.9100	216.650	8912.27	0.143307	295.070	0.0000143226
16.9200	216.650	8898.23	0.143081	295.070	0.0000143226
16.9300	216.650	8884.21	0.142856	295.070	0.0000143226
16.9400	216.650	8870.21	0.142631	295.070	0.0000143226
16.9500	216.650	8856.23	0.142406	295.070	0.0000143226
16.9600	216.650	8842.28	0.142182	295.070	0.0000143226
16.9700	216.650	8828.35	0.141958	295.070	0.0000143226
16.9800	216.650	8814.44	0.141734	295.070	0.0000143226
16.9900	216.650	8800.55	0.141511	295.070	0.0000143226
17.0000	216.650	8786.68	0.141288	295.070	0.0000143226
17.0100	216.650	8772.84	0.141065	295.070	0.0000143226
17.0200	216.650	8759.01	0.140843	295.070	0.0000143226
17.0300	216.650	8745.21	0.140621	295.070	0.0000143226
17.0400	216.650	8731.43	0.140399	295.070	0.0000143226
17.0500	216.650	8717.68	0.140178	295.070	0.0000143226
17.0600	216.650	8703.94	0.139957	295.070	0.0000143226
17.0700	216.650	8690.23	0.139737	295.070	0.0000143226
17.0800	216.650	8676.53	0.139517	295.070	0.0000143226
17.0900	216.650	8662.86	0.139297	295.070	0.0000143226
17.1000	216.650	8649.21	0.139077	295.070	0.0000143226
17.1100	216.650	8635.58	0.138858	295.070	0.0000143226
17.1200	216.650	8621.98	0.138639	295.070	0.0000143226
17.1300	216.650	8608.39	0.138421	295.070	0.0000143226
17.1400	216.650	8594.83	0.138203	295.070	0.0000143226
17.1500	216.650	8581.29	0.137985	295.070	0.0000143226
17.1600	216.650	8567.77	0.137768	295.070	0.0000143226
17.1700	216.650	8554.27	0.137551	295.070	0.0000143226
17.1800	216.650	8540.79	0.137334	295.070	0.0000143226
17.1900	216.650	8527.33	0.137117	295.070	0.0000143226
17.2000	216.650	8513.89	0.136901	295.070	0.0000143226
17.2100	216.650	8500.48	0.136686	295.070	0.0000143226
17.2200	216.650	8487.09	0.136470	295.070	0.0000143226
17.2300	216.650	8473.71	0.136255	295.070	0.0000143226
17.2400	216.650	8460.36	0.136041	295.070	0.0000143226
17.2500	216.650	8447.03	0.135826	295.070	0.0000143226
17.2600	216.650	8433.72	0.135612	295.070	0.0000143226
17.2700	216.650	8420.43	0.135399	295.070	0.0000143226
17.2800	216.650	8407.17	0.135185	295.070	0.0000143226
17.2900	216.650	8393.92	0.134972	295.070	0.0000143226
17.3000	216.650	8380.69	0.134759	295.070	0.0000143226
17.3100	216.650	8367.49	0.134547	295.070	0.0000143226
17.3200	216.650	8354.30	0.134335	295.070	0.0000143226
17.3300	216.650	8341.14	0.134123	295.070	0.0000143226
17.3400	216.650	8328.00	0.133912	295.070	0.0000143226
17.3500	216.650	8314.88	0.133701	295.070	0.0000143226
17.3600	216.650	8301.78	0.133491	295.070	0.0000143226
17.3700	216.650	8288.69	0.133280	295.070	0.0000143226
17.3800	216.650	8275.63	0.133070	295.070	0.0000143226
17.3900	216.650	8262.59	0.132860	295.070	0.0000143226
17.4000	216.650	8249.58	0.132651	295.070	0.0000143226
17.4100	216.650	8236.58	0.132442	295.070	0.0000143226
17.4200	216.650	8223.60	0.132233	295.070	0.0000143226
17.4300	216.650	8210.64	0.132025	295.070	0.0000143226
17.4400	216.650	8197.71	0.131817	295.070	0.0000143226
17.4500	216.650	8184.79	0.131609	295.070	0.0000143226
17.4600	216.650	8171.89	0.131402	295.070	0.0000143226
17.4700	216.650	8159.02	0.131195	295.070	0.0000143226
17.4800	216.650	8146.16	0.130988	295.070	0.0000143226
17.4900	216.650	8133.33	0.130782	295.070	0.0000143226
17.5000	216.650	8120.51	0.130576	295.070	0.0000143226
17.5100	216.650	8107.72	0.130370	295.070	0.0000143226
17.5200	216.650	8094.94	0.130165	295.070	0.0000143226
17.5300	216.650	8082.19	0.129960	295.070	0.0000143226
17.5400	216.650	8069.45	0.129755	295.070	0.0000143226
17.5500	216.650	8056.74	0.129550	295.070	0.0000143226
17.5600	216.650	8044.04	0.129346	295.070	0.0000143226
17.5700	216.650	8031.37	0.129142	295.070	0.0000143226
17.5800	216.650	8018.71	0.128939	295.070	0.0000143226
17.5900	216.650	8006.08	0.128736	295.070	0.0000143226
17.6000	216.650	7993.46	0.128533	295.070	0.0000143226
17.6100	216.650	7980.87	0.128330	295.070	0.0000143226
17.6200	216.650	7968.29	0.128128	295.070	0.0000143226
17.6300	216.650	7955.74	0.127926	295.070	0.0000143226
17.6400	216.650	7943.20	0.127725	295.070	0.0000143226
17.6500	216.650	7930.69	0.127524	295.070	0.0000143226
17.6600	216.650	7918.19	0.127323	295.070	0.0000143226
17.6700	216.650	7905.72	0.127122	295.070	0.0000143226
17.6800	216.650	7893.26	0.126922	295.070	0.0000143226
17.6900	216.650	7880.82	0.126722	295.070	0.0000143226
17.7000	216.650	7868.40	0.126522	295.070	0.0000143226
17.7100	216.650	7856.01	0.126323	295.070	0.0000143226
17.7200	216.650	7843.63	0.126124	295.070	0.0000143226
17.7300	216.650	7831.27	0.125925	295.070	0.0000143226
17.7400	216.650	7818.93	0.125726	295.070	0.0000143226
17.7500	216.650	7806.61	0.125528	295.070	0.0000143226
17.7600	216.650	7794.31	0.125331	295.070	0.0000143226
17.7700	216.650	7782.03	0.125133	295.070	0.0000143226
17.7800	216.650	7769.77	0.124936	295.070	0.0000143226
17.7900	216.650	7757.52	0.124739	295.070	0.0000143226
17.8000	216.650	7745.30	0.124543	295.070	0.0000143226
17.8100	216.650	7733.10	0.124346	295.070	0.0000143226
17.8200	216.650	7720.91	0.124150	295.070	0.0000143226
17.8300	216.650	7708.75	0.123955	295.070	0.0000143226
17.8400	216.650	7696.60	0.123759	295.070	0.0000143226
17.8500	216.650	7684.47	0.123564	295.070	0.0000143226
17.8600	216.650	7672.37	0.123370	295.070	0.0000143226
17.8700	216.650	7660.28	0.123175	295.070	0.0000143226
17.8800	216.650	7648.21	0.122981	295.070	0.0000143226
17.8900	216.650	7636.16	0.122788	295.070	0.0000143226
17.9000	216.650	7624.13	0.122594	295.070	0.0000143226
17.9100	216.650	7612.11	0.122401	295.070	0.0000143226
17.9200	216.650	7600.12	0.122208	295.070	0.0000143226
17.9300	216.650	7588.14	0.122015	295.070	0.0000143226
17.9400	216.650	7576.19	0.121823	295.070	0.0000143226
17.9500	216.650	7564.25	0.121631	295.070	0.0000143226
17.9600	216.650	7552.33	0.121440	295.070	0.0000143226
17.9700	216.650	7540.43	0.121248	295.070	0.0000143226
17.9800	216.650	7528.55	0.121057	295.070	0.0000143226
17.9900	216.650	7516.69	0.120867	295.070	0.0000143226
18.0000	216.650	7504.84	0.120676	295.070	0.0000143226
18.0100	216.650	7493.02	0.120486	295.070	0.0000143226
18.0200	216.650	7481.21	0.120296	295.070	0.0000143226
18.0300	216.650	7469.43	0.120107	295.070	0.0000143226
18.0400	216.650	7457.66	0.119917	295.070	0.0000143226
18.0500	216.650	7445.91	0.119728	295.070	0.0000143226
18.0600	216.650	7434.17	0.119540	295.070	0.0000143226
18.0700	216.650	7422.46	0.119351	295.070	0.0000143226
18.0800	216.650	7410.77	0.119163	295.070	0.0000143226
18.0900	216.650	7399.09	0.118976	295.070	0.0000143226
18.1000	216.650	7387.43	0.118788	295.070	0.0000143226
18.1100	216.650	7375.79	0.118601	295.070	0.0000143226
18.1200	216.650	7364.17	0.118414	295.070	0.0000143226
18.1300	216.650	7352.57	0.118227	295.070	0.0000143226
18.1400	216.650	7340.98	0.118041	295.070	0.0000143226
18.1500	216.650	7329.41	0.117855	295.070	0.0000143226
18.1600	216.650	7317.87	0.117669	295.070	0.0000143226
18.1700	216.650	7306.33	0.117484	295.070	0.0000143226
18.1800	216.650	7294.82	0.117299	295.070	0.0000143226
18.1900	216.650	7283.33	0.117114	295.070	0.0000143226
18.2000	216.650	7271.85	0.116930	295.070	0.0000143226
18.2100	216.650	7260.39	0.116745	295.070	0.0000143226
18.2200	216.650	7248.95	0.116561	295.070	0.0000143226
18.2300	216.650	7237.53	0.116378	295.070	0.0000143226
18.2400	216.650	7226.13	0.116194	295.070	0.0000143226
18.2500	216.650	7214.74	0.116011	295.070	0.0000143226
18.2600	216.650	7203.38	0.115829	295.070	0.0000143226
18.2700	216.650	7192.03	0.115646	295.070	0.0000143226
18.2800	216.650	7180.69	0.115464	295.070	0.0000143226
18.2900	216.650	7169.38	0.115282	295.070	0.0000143226
18.3000	216.650	7158.08	0.115100	295.070	0.0000143226
18.3100	216.650	7146.80	0.114919	295.070	0.0000143226
18.3200	216.650	7135.54	0.114738	295.070	0.0000143226
18.3300	216.650	7124.30	0.114557	295.070	0.0000143226
18.3400	216.650	7113.08	0.114377	295.070	0.0000143226
18.3500	216.650	7101.87	0.114196	295.070	0.0000143226
18.3600	216.650	7090.68	0.114016	295.070	0.0000143226
18.3700	216.650	7079.51	0.113837	295.070	0.0000143226
18.3800	216.650	7068.35	0.113657	295.070	0.0000143226
18.3900	216.650	7057.21	0.113478	295.070	0.0000143226
18.4000	216.650	7046.09	0.113299	295.070	0.0000143226
18.4100	216.650	7034.99	0.113121	295.070	0.0000143226
18.4200	216.650	7023.91	0.112943	295.070	0.0000143226
18.4300	216.650	7012.84	0.112765	295.070	0.0000143226
18.4400	216.650	7001.79	0.112587	295.070	0.0000143226
18.4500	216.650	6990.76	0.112410	295.070	0.0000143226
18.4600	216.650	6979.74	0.112233	295.070	0.0000143226
18.4700	216.650	6968.75	0.112056	295.070	0.0000143226
18.4800	216.650	6957.77	0.111879	295.070	0.0000143226
18.4900	216.650	6946.80	0.111703	295.070	0.0000143226
18.5000	216.650	6935.86	0.111527	295.070	0.0000143226
18.5100	216.650	6924.93	0.111351	295.070	0.0000143226
18.5200	216.650	6914.02	0.111176	295.070	0.0000143226
18.5300	216.650	6903.12	0.111001	295.070	0.0000143226
18.5400	216.650	6892.25	0.110826	295.070	0.0000143226
18.5500	216.650	6881.39	0.110651	295.070	0.0000143226
18.5600	216.650	6870.54	0.110477	295.070	0.0000143226
18.5700	216.650	6859.72	0.110303	295.070	0.0000143226
18.5800	216.650	6848.91	0.110129	295.070	0.0000143226
18.5900	216.650	6838.12	0.109955	295.070	0.0000143226
18.6000	216.650	6827.34	0.109782	295.070	0.0000143226
18.6100	216.650	6816.59	0.109609	295.070	0.0000143226
18.6200	216.650	6805.85	0.109436	295.070	0.0000143226
18.6300	216.650	6795.12	0.109264	295.070	0.0000143226
18.6400	216.650	6784.42	0.109092	295.070	0.0000143226
18.6500	216.650	6773.73	0.108920	295.070	0.0000143226
18.6600	216.650	6763.05	0.108748	295.070	0.0000143226
18.6700	216.650	6752.40	0.108577	295.070	0.0000143226
18.6800	216.650	6741.76	0.108406	295.070	0.0000143226
18.6900	216.650	6731.13	0.108235	295.070	0.0000143226
18.7000	216.650	6720.53	0.108064	295.070	0.0000143226
18.7100	216.650	6709.94	0.107894	295.070	0.0000143226
18.7200	216.650	6699.37	0.107724	295.070	0.0000143226
18.7300	216.650	6688.81	0.107554	295.070	0.0000143226
18.7400	216.650	6678.27	0.107385	295.070	0.0000143226
18.7500	216.650	6667.75	0.107216	295.070	0.0000143226
18.7600	216.650	6657.24	0.107047	295.070	0.0000143226
18.7700	216.650	6646.75	0.106878	295.070	0.0000143226
18.7800	216.650	6636.28	0.106710	295.070	0.0000143226
18.7900	216.650	6625.83	0.106542	295.070	0.0000143226
18.8000	216.650	6615.39	0.106374	295.070	0.0000143226
18.8100	216.650	6604.96	0.106206	295.070	0.0000143226
18.8200	216.650	6594.55	0.106039	295.070	0.0000143226
18.8300	216.650	6584.16	0.105872	295.070	0.0000143226
18.8400	216.650	6573.79	0.105705	295.070	0.0000143226
18.8500	216.650	6563.43	0.105538	295.070	0.0000143226
18.8600	216.650	6553.09	0.105372	295.070	0.0000143226
18.8700	216.650	6542.76	0.105206	295.070	0.0000143226
18.8800	216.650	6532.46	0.105040	295.070	0.0000143226
18.8900	216.650	6522.16	0.104875	295.070	0.0000143226
18.9000	216.650	6511.89	0.104710	295.070	0.0000143226
18.9100	216.650	6501.63	0.104545	295.070	0.0000143226
18.9200	216.650	6491.38	0.104380	295.070	0.0000143226
18.9300	216.650	6481.15	0.104215	295.070	0.0000143226
18.9400	216.650	6470.94	0.104051	295.070	0.0000143226
18.9500	216.650	6460.75	0.103887	295.070	0.0000143226
18.9600	216.650	6450.57	0.103724	295.070	0.0000143226
18.9700	216.650	6440.40	0.103560	295.070	0.0000143226
18.9800	216.650	6430.25	0.103397	295.070	0.0000143226
18.9900	216.650	6420.12	0.103234	295.070	0.0000143226
19.0000	216.650	6410.01	0.103071	295.070	0.0000143226
19.0100	216.650	6399.91	0.102909	295.070	0.0000143226
19.0200	216.650	6389.82	0.102747	295.070	0.0000143226
19.0300	216.650	6379.76	0.102585	295.070	0.0000143226
19.0400	216.650	6369.70	0.102423	295.070	0.0000143226
19.0500	216.650	6359.67	0.102262	295.070	0.0000143226
19.0600	216.650	6349.65	0.102101	295.070	0.0000143226
19.0700	216.650	6339.64	0.101940	295.070	0.0000143226
19.0800	216.650	6329.65	0.101779	295.070	0.0000143226
19.0900	216.650	6319.68	0.101619	295.070	0.0000143226
19.1000	216.650	6309.72	0.101459	295.070	0.0000143226
19.1100	216.650	6299.78	0.101299	295.070	0.0000143226
19.1200	216.650	6289.85	0.101139	295.070	0.0000143226
19.1300	216.650	6279.94	0.100980	295.070	0.0000143226
19.1400	216.650	6270.05	0.100821	295.070	0.0000143226
19.1500	216.650	6260.17	0.100662	295.070	0.0000143226
19.1600	216.650	6250.30	0.100503	295.070	0.0000143226
19.1700	216.650	6240.46	0.100345	295.070	0.0000143226
19.1800	216.650	6230.62	0.100187	295.070	0.0000143226
19.1900	216.650	6220.81	0.100029	295.070	0.0000143226
19.2000	216.650	6211.00	0.0998714	295.070	0.0000143226
19.2100	216.650	6201.22	0.0997141	295.070	0.0000143226
19.2200	216.650	6191.45	0.0995570	295.070	0.0000143226
19.2300	216.650	6181.69	0.0994001	295.070	0.0000143226
19.2400	216.650	6171.95	0.0992435	295.070	0.0000143226
19.2500	216.650	6162.23	0.0990871	295.070	0.0000143226
19.2600	216.650	6152.52	0.0989310	295.070	0.0000143226
19.2700	216.650	6142.82	0.0987751	295.070	0.0000143226
19.2800	216.650	6133.14	0.0986195	295.070	0.0000143226
19.2900	216.650	6123.48	0.0984641	295.070	0.0000143226
19.3000	216.650	6113.83	0.0983089	295.070	0.0000143226
19.3100	216.650	6104.20	0.0981540	295.070	0.0000143226
19.3200	216.650	6094.58	0.0979994	295.070	0.0000143226
19.3300	216.650	6084.98	0.0978450	295.070	0.0000143226
19.3400	216.650	6075.39	0.0976908	295.070	0.0000143226
19.3500	216.650	6065.82	0.0975369	295.070	0.0000143226
19.3600	216.650	6056.26	0.0973832	295.070	0.0000143226
19.3700	216.650	6046.72	0.0972297	295.070	0.0000143226
19.3800	216.650	6037.19	0.0970765	295.070	0.0000143226
19.3900	216.650	6027.68	0.0969236	295.070	0.0000143226
19.4000	216.650	6018.18	0.0967709	295.070	0.0000143226
19.4100	216.650	6008.70	0.0966184	295.070	0.0000143226
19.4200	216.650	5999.23	0.0964662	295.070	0.0000143226
19.4300	216.650	5989.78	0.0963142	295.070	0.0000143226
19.4400	216.650	5980.34	0.0961624	295.070	0.0000143226
19.4500	216.650	5970.92	0.0960109	295.070	0.0000143226
19.4600	216.650	5961.51	0.0958596	295.070	0.0000143226
19.4700	216.650	5952.12	0.0957086	295.070	0.0000143226
19.4800	216.650	5942.74	0.0955578	295.070	0.0000143226
19.4900	216.650	5933.37	0.0954072	295.070	0.0000143226
19.5000	216.650	5924.03	0.0952569	295.070	0.0000143226
19.5100	216.650	5914.69	0.0951068	295.070	0.0000143226
19.5200	216.650	5905.37	0.0949569	295.070	0.0000143226
19.5300	216.650	5896.07	0.0948073	295.070	0.0000143226
19.5400	216.650	5886.78	0.0946579	295.070	0.0000143226
19.5500	216.650	5877.50	0.0945088	295.070	0.0000143226
19.5600	216.650	5868.24	0.0943599	295.070	0.0000143226
19.5700	216.650	5858.99	0.0942112	295.070	0.0000143226
19.5800	216.650	5849.76	0.0940627	295.070	0.0000143226
19.5900	216.650	5840.55	0.0939145	295.070	0.0000143226
19.6000	216.650	5831.34	0.0937666	295.070	0.0000143226
19.6100	216.650	5822.15	0.0936188	295.070	0.0000143226
19.6200	216.650	5812.98	0.0934713	295.070	0.0000143226
19.6300	216.650	5803.82	0.0933240	295.070	0.0000143226
19.6400	216.650	5794.68	0.0931770	295.070	0.0000143226
19.6500	216.650	5785.55	0.0930302	295.070	0.0000143226
19.6600	216.650	5776.43	0.0928836	295.070	0.0000143226
19.6700	216.650	5767.33	0.0927372	295.070	0.0000143226
19.6800	216.650	5758.24	0.0925911	295.070	0.0000143226
19.6900	216.650	5749.17	0.0924452	295.070	0.0000143226
19.7000	216.650	5740.11	0.0922996	295.070	0.0000143226
19.7100	216.650	5731.07	0.0921541	295.070	0.0000143226
19.7200	216.650	5722.04	0.0920089	295.070	0.0000143226
19.7300	216.650	5713.02	0.0918640	295.070	0.0000143226
19.7400	216.650	5704.02	0.0917192	295.070	0.0000143226
19.7500	216.650	5695.03	0.0915747	295.070	0.0000143226
19.7600	216.650	5686.06	0.0914304	295.070	0.0000143226
19.7700	216.650	5677.10	0.0912863	295.070	0.0000143226
19.7800	216.650	5668.15	0.0911425	295.070	0.0000143226
19.7900	216.650	5659.22	0.0909989	295.070	0.0000143226
19.8000	216.650	5650.31	0.0908555	295.070	0.0000143226
19.8100	216.650	5641.40	0.0907124	295.070	0.0000143226
19.8200	216.650	5632.51	0.0905694	295.070	0.0000143226
19.8300	216.650	5623.64	0.0904267	295.070	0.0000143226
19.8400	216.650	5614.78	0.0902843	295.070	0.0000143226
19.8500	216.650	5605.93	0.0901420	295.070	0.0000143226
19.8600	216.650	5597.10	0.0900000	295.070	0.0000143226
19.8700	216.650	5588.28	0.0898582	295.070	0.0000143226
19.8800	216.650	5579.47	0.0897166	295.070	0.0000143226
19.8900	216.650	5570.68	0.0895752	295.070	0.0000143226
19.9000	216.650	5561.91	0.0894341	295.070	0.0000143226
19.9100	216.650	5553.14	0.0892932	295.070	0.0000143226
19.9200	216.650	5544.39	0.0891525	295.070	0.0000143226
19.9300	216.650	5535.66	0.0890120	295.070	0.0000143226
19.9400	216.650	5526.93	0.0888717	295.070	0.0000143226
19.9500	216.650	5518.23	0.0887317	295.070	0.0000143226
19.9600	216.650	5509.53	0.0885919	295.070	0.0000143226
19.9700	216.650	5500.85	0.0884523	295.070	0.0000143226
19.9800	216.650	5492.18	0.0883129	295.070	0.0000143226
19.9900	216.650	5483.53	0.0881738	295.070	0.0000143226



